<?xml version="1.0" encoding="UTF-8"?>
<Bundle xmlns="http://hl7.org/fhir">
    <type value="transaction"/>

  <entry>
  <resource>
    
    
  <Patient>
    <id value="629528"/>
    <text>
      <status value="generated"/>
      <div xmlns="http://www.w3.org/1999/xhtml">
        <p>Michelle Harris</p>
      </div>
    </text>
    <identifier>
      <use value="usual"/>
      <type>
        <coding>
          <system value="http://hl7.org/fhir/v2/0203"/>
          <code value="MR"/>
          <display value="Medical record number"/>
        </coding>
        <text value="Medical record number"/>
      </type>
      <system value="http://hospital.smarthealthit.org"/>
      <value value="629528"/>
    </identifier>
    <name>
      <use value="official"/>
      <family value="Harris"/>
      <given value="Michelle"/>
      <given value="Z."/>
    </name>
    <telecom>
      <system value="phone"/>
      <value value="800-959-4263"/>
      <use value="mobile"/>
    </telecom>
    <telecom>
      <system value="email"/>
      <value value="michelle.harris@example.com"/>
    </telecom>
    <gender value="female" />
    <birthDate value="1981-10-27" />
    <address>
      <use value="home"/>
      <line value="89 Elm Ave"/>
      <city value="Bixby"/>
      <state value="OK"/>
      <postalCode value="74008"/>
      <country value="USA"/>
    </address>
    <active value="true"/>
  </Patient>
  
  </resource>
  <request>
    <method value="POST"/>
    <url value="Patient/629528"/>
  </request>
</entry>
  <entry>
  <resource>
    
    
    <Encounter>
  <id value="25"/>
      <text>
        <status value="generated"/>
        <div xmlns="http://www.w3.org/1999/xhtml">1997-07-29: ambulatory encounter</div>
      </text>
      <status value="finished"/>
      <class value="ambulatory"/>
      <patient>
        <reference value="Patient/629528"/>
      </patient>
      <period>
       <start value="1997-07-29"/>
       <end value="1997-07-29"/>
      </period>
    </Encounter>
  
  </resource>
  <request>
    <method value="POST"/>
    <url value="Encounter/25"/>
  </request>
</entry>
  <entry>
  <resource>
    
    
    <Encounter>
  <id value="26"/>
      <text>
        <status value="generated"/>
        <div xmlns="http://www.w3.org/1999/xhtml">1997-07-31: ambulatory encounter</div>
      </text>
      <status value="finished"/>
      <class value="ambulatory"/>
      <patient>
        <reference value="Patient/629528"/>
      </patient>
      <period>
       <start value="1997-07-31"/>
       <end value="1997-07-31"/>
      </period>
    </Encounter>
  
  </resource>
  <request>
    <method value="POST"/>
    <url value="Encounter/26"/>
  </request>
</entry>
  <entry>
  <resource>
    
    
    <Encounter>
  <id value="27"/>
      <text>
        <status value="generated"/>
        <div xmlns="http://www.w3.org/1999/xhtml">1997-10-24: ambulatory encounter</div>
      </text>
      <status value="finished"/>
      <class value="ambulatory"/>
      <patient>
        <reference value="Patient/629528"/>
      </patient>
      <period>
       <start value="1997-10-24"/>
       <end value="1997-10-24"/>
      </period>
    </Encounter>
  
  </resource>
  <request>
    <method value="POST"/>
    <url value="Encounter/27"/>
  </request>
</entry>
  <entry>
  <resource>
    
    
    <Encounter>
  <id value="28"/>
      <text>
        <status value="generated"/>
        <div xmlns="http://www.w3.org/1999/xhtml">1998-03-27: ambulatory encounter</div>
      </text>
      <status value="finished"/>
      <class value="ambulatory"/>
      <patient>
        <reference value="Patient/629528"/>
      </patient>
      <period>
       <start value="1998-03-27"/>
       <end value="1998-03-27"/>
      </period>
    </Encounter>
  
  </resource>
  <request>
    <method value="POST"/>
    <url value="Encounter/28"/>
  </request>
</entry>
  <entry>
  <resource>
    
    
    <Encounter>
  <id value="29"/>
      <text>
        <status value="generated"/>
        <div xmlns="http://www.w3.org/1999/xhtml">1998-08-04: ambulatory encounter</div>
      </text>
      <status value="finished"/>
      <class value="ambulatory"/>
      <patient>
        <reference value="Patient/629528"/>
      </patient>
      <period>
       <start value="1998-08-04"/>
       <end value="1998-08-04"/>
      </period>
    </Encounter>
  
  </resource>
  <request>
    <method value="POST"/>
    <url value="Encounter/29"/>
  </request>
</entry>
  <entry>
  <resource>
    
    
    <Encounter>
  <id value="30"/>
      <text>
        <status value="generated"/>
        <div xmlns="http://www.w3.org/1999/xhtml">1998-08-05: ambulatory encounter</div>
      </text>
      <status value="finished"/>
      <class value="ambulatory"/>
      <patient>
        <reference value="Patient/629528"/>
      </patient>
      <period>
       <start value="1998-08-05"/>
       <end value="1998-08-05"/>
      </period>
    </Encounter>
  
  </resource>
  <request>
    <method value="POST"/>
    <url value="Encounter/30"/>
  </request>
</entry>
  <entry>
  <resource>
    
    
    <Encounter>
  <id value="31"/>
      <text>
        <status value="generated"/>
        <div xmlns="http://www.w3.org/1999/xhtml">1998-08-06: ambulatory encounter</div>
      </text>
      <status value="finished"/>
      <class value="ambulatory"/>
      <patient>
        <reference value="Patient/629528"/>
      </patient>
      <period>
       <start value="1998-08-06"/>
       <end value="1998-08-06"/>
      </period>
    </Encounter>
  
  </resource>
  <request>
    <method value="POST"/>
    <url value="Encounter/31"/>
  </request>
</entry>
  <entry>
  <resource>
    
    
    <Encounter>
  <id value="32"/>
      <text>
        <status value="generated"/>
        <div xmlns="http://www.w3.org/1999/xhtml">1998-12-02: ambulatory encounter</div>
      </text>
      <status value="finished"/>
      <class value="ambulatory"/>
      <patient>
        <reference value="Patient/629528"/>
      </patient>
      <period>
       <start value="1998-12-02"/>
       <end value="1998-12-02"/>
      </period>
    </Encounter>
  
  </resource>
  <request>
    <method value="POST"/>
    <url value="Encounter/32"/>
  </request>
</entry>
  <entry>
  <resource>
    
    
    <Encounter>
  <id value="33"/>
      <text>
        <status value="generated"/>
        <div xmlns="http://www.w3.org/1999/xhtml">1998-12-08: ambulatory encounter</div>
      </text>
      <status value="finished"/>
      <class value="ambulatory"/>
      <patient>
        <reference value="Patient/629528"/>
      </patient>
      <period>
       <start value="1998-12-08"/>
       <end value="1998-12-08"/>
      </period>
    </Encounter>
  
  </resource>
  <request>
    <method value="POST"/>
    <url value="Encounter/33"/>
  </request>
</entry>
  <entry>
  <resource>
    
    
    <Encounter>
  <id value="34"/>
      <text>
        <status value="generated"/>
        <div xmlns="http://www.w3.org/1999/xhtml">1998-12-09: ambulatory encounter</div>
      </text>
      <status value="finished"/>
      <class value="ambulatory"/>
      <patient>
        <reference value="Patient/629528"/>
      </patient>
      <period>
       <start value="1998-12-09"/>
       <end value="1998-12-09"/>
      </period>
    </Encounter>
  
  </resource>
  <request>
    <method value="POST"/>
    <url value="Encounter/34"/>
  </request>
</entry>
  <entry>
  <resource>
    
    
    <Encounter>
  <id value="35"/>
      <text>
        <status value="generated"/>
        <div xmlns="http://www.w3.org/1999/xhtml">2000-01-11: ambulatory encounter</div>
      </text>
      <status value="finished"/>
      <class value="ambulatory"/>
      <patient>
        <reference value="Patient/629528"/>
      </patient>
      <period>
       <start value="2000-01-11"/>
       <end value="2000-01-11"/>
      </period>
    </Encounter>
  
  </resource>
  <request>
    <method value="POST"/>
    <url value="Encounter/35"/>
  </request>
</entry>
  <entry>
  <resource>
    
    
    <Encounter>
  <id value="36"/>
      <text>
        <status value="generated"/>
        <div xmlns="http://www.w3.org/1999/xhtml">2001-01-08: ambulatory encounter</div>
      </text>
      <status value="finished"/>
      <class value="ambulatory"/>
      <patient>
        <reference value="Patient/629528"/>
      </patient>
      <period>
       <start value="2001-01-08"/>
       <end value="2001-01-08"/>
      </period>
    </Encounter>
  
  </resource>
  <request>
    <method value="POST"/>
    <url value="Encounter/36"/>
  </request>
</entry>
  <entry>
  <resource>
    
    
    <Encounter>
  <id value="37"/>
      <text>
        <status value="generated"/>
        <div xmlns="http://www.w3.org/1999/xhtml">2004-05-10: ambulatory encounter</div>
      </text>
      <status value="finished"/>
      <class value="ambulatory"/>
      <patient>
        <reference value="Patient/629528"/>
      </patient>
      <period>
       <start value="2004-05-10"/>
       <end value="2004-05-10"/>
      </period>
    </Encounter>
  
  </resource>
  <request>
    <method value="POST"/>
    <url value="Encounter/37"/>
  </request>
</entry>
  <entry>
  <resource>
    
    
    <Encounter>
  <id value="38"/>
      <text>
        <status value="generated"/>
        <div xmlns="http://www.w3.org/1999/xhtml">2004-05-11: ambulatory encounter</div>
      </text>
      <status value="finished"/>
      <class value="ambulatory"/>
      <patient>
        <reference value="Patient/629528"/>
      </patient>
      <period>
       <start value="2004-05-11"/>
       <end value="2004-05-11"/>
      </period>
    </Encounter>
  
  </resource>
  <request>
    <method value="POST"/>
    <url value="Encounter/38"/>
  </request>
</entry>
  <entry>
  <resource>
    
    
    <Encounter>
  <id value="39"/>
      <text>
        <status value="generated"/>
        <div xmlns="http://www.w3.org/1999/xhtml">2004-09-03: ambulatory encounter</div>
      </text>
      <status value="finished"/>
      <class value="ambulatory"/>
      <patient>
        <reference value="Patient/629528"/>
      </patient>
      <period>
       <start value="2004-09-03"/>
       <end value="2004-09-03"/>
      </period>
    </Encounter>
  
  </resource>
  <request>
    <method value="POST"/>
    <url value="Encounter/39"/>
  </request>
</entry>
  <entry>
  <resource>
    
    
  <Observation>
    <id value="25-bp"/>
    <text>
      <status value="generated"/>
      <div xmlns="http://www.w3.org/1999/xhtml">1997-07-29: Blood pressure 114/65 mmHg</div>
    </text>
    <code>
      <coding>
        <system value="http://loinc.org"/>
        <code value="55284-4"/>
        <display value="Blood pressure systolic and diastolic"/>
      </coding>
      <text value="Blood pressure systolic and diastolic"/>
    </code>
    <effectiveDateTime value="1997-07-29"/>
    <status value="final"/>
    <subject>
      <reference value="Patient/629528"/>
    </subject>
    <encounter>
      <reference value="Encounter/25"/>
    </encounter>
    

    <component>
        <code>
            <coding>
                <system value="http://loinc.org"/>
                <code value="8480-6"/>
                <display value="Systolic blood pressure"/>
            </coding>
            <text value="Systolic blood pressure"/>
        </code>
        <valueQuantity>
            <value value="114"/>
            <unit value="mmHg"/>
            <system value="http://unitsofmeasure.org" />
            <code value="mm[Hg]"/>
        </valueQuantity>
    </component>

    <component>
        <code>
            <coding>
                <system value="http://loinc.org"/>
                <code value="8462-4"/>
                <display value="Diastolic blood pressure"/>
            </coding>
            <text value="Diastolic blood pressure"/>
        </code>
        <valueQuantity>
            <value value="65"/>
            <unit value="mmHg"/>
            <system value="http://unitsofmeasure.org" />
            <code value="mm[Hg]"/>
        </valueQuantity>
    </component>

  </Observation>
  
  </resource>
  <request>
    <method value="POST"/>
    <url value="Observation/25-bp"/>
  </request>
</entry>
<entry>
  <resource>
    
    
  <Observation>
  <id value="25-systolic"/>
    <text>
      <status value="generated"/>
      <div xmlns="http://www.w3.org/1999/xhtml">1997-07-29: Systolic blood pressure = 114 mm[Hg]</div>
    </text>
    <code>
      <coding>
        <system value="http://loinc.org"/>
        <code value="8480-6"/>
        <display value="Systolic blood pressure"/>
      </coding>
      <text value="Systolic blood pressure"/>
    </code>
    <valueQuantity>
      <value value="114.0"/>
      <unit value="mm[Hg]"/>
      <system value="http://unitsofmeasure.org" />
      <code value="mm[Hg]"/>
    </valueQuantity>
    
    <effectiveDateTime value="1997-07-29"/>
    <status value="final"/>
    <subject>
      <reference value="Patient/629528"/>
    </subject>
  </Observation>
  
  </resource>
  <request>
    <method value="POST"/>
    <url value="Observation/25-systolic"/>
  </request>
</entry>
<entry>
  <resource>
    
    
  <Observation>
  <id value="25-diastolic"/>
    <text>
      <status value="generated"/>
      <div xmlns="http://www.w3.org/1999/xhtml">1997-07-29: Diastolic blood pressure = 65 mm[Hg]</div>
    </text>
    <code>
      <coding>
        <system value="http://loinc.org"/>
        <code value="8462-4"/>
        <display value="Diastolic blood pressure"/>
      </coding>
      <text value="Diastolic blood pressure"/>
    </code>
    <valueQuantity>
      <value value="65.0"/>
      <unit value="mm[Hg]"/>
      <system value="http://unitsofmeasure.org" />
      <code value="mm[Hg]"/>
    </valueQuantity>
    
    <effectiveDateTime value="1997-07-29"/>
    <status value="final"/>
    <subject>
      <reference value="Patient/629528"/>
    </subject>
  </Observation>
  
  </resource>
  <request>
    <method value="POST"/>
    <url value="Observation/25-diastolic"/>
  </request>
</entry>
  <entry>
  <resource>
    
    
  <Observation>
    <id value="26-bp"/>
    <text>
      <status value="generated"/>
      <div xmlns="http://www.w3.org/1999/xhtml">1997-07-31: Blood pressure 111/68 mmHg</div>
    </text>
    <code>
      <coding>
        <system value="http://loinc.org"/>
        <code value="55284-4"/>
        <display value="Blood pressure systolic and diastolic"/>
      </coding>
      <text value="Blood pressure systolic and diastolic"/>
    </code>
    <effectiveDateTime value="1997-07-31"/>
    <status value="final"/>
    <subject>
      <reference value="Patient/629528"/>
    </subject>
    <encounter>
      <reference value="Encounter/26"/>
    </encounter>
    

    <component>
        <code>
            <coding>
                <system value="http://loinc.org"/>
                <code value="8480-6"/>
                <display value="Systolic blood pressure"/>
            </coding>
            <text value="Systolic blood pressure"/>
        </code>
        <valueQuantity>
            <value value="111"/>
            <unit value="mmHg"/>
            <system value="http://unitsofmeasure.org" />
            <code value="mm[Hg]"/>
        </valueQuantity>
    </component>

    <component>
        <code>
            <coding>
                <system value="http://loinc.org"/>
                <code value="8462-4"/>
                <display value="Diastolic blood pressure"/>
            </coding>
            <text value="Diastolic blood pressure"/>
        </code>
        <valueQuantity>
            <value value="68"/>
            <unit value="mmHg"/>
            <system value="http://unitsofmeasure.org" />
            <code value="mm[Hg]"/>
        </valueQuantity>
    </component>

  </Observation>
  
  </resource>
  <request>
    <method value="POST"/>
    <url value="Observation/26-bp"/>
  </request>
</entry>
<entry>
  <resource>
    
    
  <Observation>
  <id value="26-systolic"/>
    <text>
      <status value="generated"/>
      <div xmlns="http://www.w3.org/1999/xhtml">1997-07-31: Systolic blood pressure = 111 mm[Hg]</div>
    </text>
    <code>
      <coding>
        <system value="http://loinc.org"/>
        <code value="8480-6"/>
        <display value="Systolic blood pressure"/>
      </coding>
      <text value="Systolic blood pressure"/>
    </code>
    <valueQuantity>
      <value value="111.0"/>
      <unit value="mm[Hg]"/>
      <system value="http://unitsofmeasure.org" />
      <code value="mm[Hg]"/>
    </valueQuantity>
    
    <effectiveDateTime value="1997-07-31"/>
    <status value="final"/>
    <subject>
      <reference value="Patient/629528"/>
    </subject>
  </Observation>
  
  </resource>
  <request>
    <method value="POST"/>
    <url value="Observation/26-systolic"/>
  </request>
</entry>
<entry>
  <resource>
    
    
  <Observation>
  <id value="26-diastolic"/>
    <text>
      <status value="generated"/>
      <div xmlns="http://www.w3.org/1999/xhtml">1997-07-31: Diastolic blood pressure = 68 mm[Hg]</div>
    </text>
    <code>
      <coding>
        <system value="http://loinc.org"/>
        <code value="8462-4"/>
        <display value="Diastolic blood pressure"/>
      </coding>
      <text value="Diastolic blood pressure"/>
    </code>
    <valueQuantity>
      <value value="68.0"/>
      <unit value="mm[Hg]"/>
      <system value="http://unitsofmeasure.org" />
      <code value="mm[Hg]"/>
    </valueQuantity>
    
    <effectiveDateTime value="1997-07-31"/>
    <status value="final"/>
    <subject>
      <reference value="Patient/629528"/>
    </subject>
  </Observation>
  
  </resource>
  <request>
    <method value="POST"/>
    <url value="Observation/26-diastolic"/>
  </request>
</entry>
  <entry>
  <resource>
    
    
  <Observation>
    <id value="27-bp"/>
    <text>
      <status value="generated"/>
      <div xmlns="http://www.w3.org/1999/xhtml">1997-10-24: Blood pressure 112/69 mmHg</div>
    </text>
    <code>
      <coding>
        <system value="http://loinc.org"/>
        <code value="55284-4"/>
        <display value="Blood pressure systolic and diastolic"/>
      </coding>
      <text value="Blood pressure systolic and diastolic"/>
    </code>
    <effectiveDateTime value="1997-10-24"/>
    <status value="final"/>
    <subject>
      <reference value="Patient/629528"/>
    </subject>
    <encounter>
      <reference value="Encounter/27"/>
    </encounter>
    

    <component>
        <code>
            <coding>
                <system value="http://loinc.org"/>
                <code value="8480-6"/>
                <display value="Systolic blood pressure"/>
            </coding>
            <text value="Systolic blood pressure"/>
        </code>
        <valueQuantity>
            <value value="112"/>
            <unit value="mmHg"/>
            <system value="http://unitsofmeasure.org" />
            <code value="mm[Hg]"/>
        </valueQuantity>
    </component>

    <component>
        <code>
            <coding>
                <system value="http://loinc.org"/>
                <code value="8462-4"/>
                <display value="Diastolic blood pressure"/>
            </coding>
            <text value="Diastolic blood pressure"/>
        </code>
        <valueQuantity>
            <value value="69"/>
            <unit value="mmHg"/>
            <system value="http://unitsofmeasure.org" />
            <code value="mm[Hg]"/>
        </valueQuantity>
    </component>

  </Observation>
  
  </resource>
  <request>
    <method value="POST"/>
    <url value="Observation/27-bp"/>
  </request>
</entry>
<entry>
  <resource>
    
    
  <Observation>
  <id value="27-systolic"/>
    <text>
      <status value="generated"/>
      <div xmlns="http://www.w3.org/1999/xhtml">1997-10-24: Systolic blood pressure = 112 mm[Hg]</div>
    </text>
    <code>
      <coding>
        <system value="http://loinc.org"/>
        <code value="8480-6"/>
        <display value="Systolic blood pressure"/>
      </coding>
      <text value="Systolic blood pressure"/>
    </code>
    <valueQuantity>
      <value value="112.0"/>
      <unit value="mm[Hg]"/>
      <system value="http://unitsofmeasure.org" />
      <code value="mm[Hg]"/>
    </valueQuantity>
    
    <effectiveDateTime value="1997-10-24"/>
    <status value="final"/>
    <subject>
      <reference value="Patient/629528"/>
    </subject>
  </Observation>
  
  </resource>
  <request>
    <method value="POST"/>
    <url value="Observation/27-systolic"/>
  </request>
</entry>
<entry>
  <resource>
    
    
  <Observation>
  <id value="27-diastolic"/>
    <text>
      <status value="generated"/>
      <div xmlns="http://www.w3.org/1999/xhtml">1997-10-24: Diastolic blood pressure = 69 mm[Hg]</div>
    </text>
    <code>
      <coding>
        <system value="http://loinc.org"/>
        <code value="8462-4"/>
        <display value="Diastolic blood pressure"/>
      </coding>
      <text value="Diastolic blood pressure"/>
    </code>
    <valueQuantity>
      <value value="69.0"/>
      <unit value="mm[Hg]"/>
      <system value="http://unitsofmeasure.org" />
      <code value="mm[Hg]"/>
    </valueQuantity>
    
    <effectiveDateTime value="1997-10-24"/>
    <status value="final"/>
    <subject>
      <reference value="Patient/629528"/>
    </subject>
  </Observation>
  
  </resource>
  <request>
    <method value="POST"/>
    <url value="Observation/27-diastolic"/>
  </request>
</entry>
  <entry>
  <resource>
    
    
  <Observation>
    <id value="28-bp"/>
    <text>
      <status value="generated"/>
      <div xmlns="http://www.w3.org/1999/xhtml">1998-03-27: Blood pressure 110/68 mmHg</div>
    </text>
    <code>
      <coding>
        <system value="http://loinc.org"/>
        <code value="55284-4"/>
        <display value="Blood pressure systolic and diastolic"/>
      </coding>
      <text value="Blood pressure systolic and diastolic"/>
    </code>
    <effectiveDateTime value="1998-03-27"/>
    <status value="final"/>
    <subject>
      <reference value="Patient/629528"/>
    </subject>
    <encounter>
      <reference value="Encounter/28"/>
    </encounter>
    

    <component>
        <code>
            <coding>
                <system value="http://loinc.org"/>
                <code value="8480-6"/>
                <display value="Systolic blood pressure"/>
            </coding>
            <text value="Systolic blood pressure"/>
        </code>
        <valueQuantity>
            <value value="110"/>
            <unit value="mmHg"/>
            <system value="http://unitsofmeasure.org" />
            <code value="mm[Hg]"/>
        </valueQuantity>
    </component>

    <component>
        <code>
            <coding>
                <system value="http://loinc.org"/>
                <code value="8462-4"/>
                <display value="Diastolic blood pressure"/>
            </coding>
            <text value="Diastolic blood pressure"/>
        </code>
        <valueQuantity>
            <value value="68"/>
            <unit value="mmHg"/>
            <system value="http://unitsofmeasure.org" />
            <code value="mm[Hg]"/>
        </valueQuantity>
    </component>

  </Observation>
  
  </resource>
  <request>
    <method value="POST"/>
    <url value="Observation/28-bp"/>
  </request>
</entry>
<entry>
  <resource>
    
    
  <Observation>
  <id value="28-systolic"/>
    <text>
      <status value="generated"/>
      <div xmlns="http://www.w3.org/1999/xhtml">1998-03-27: Systolic blood pressure = 110 mm[Hg]</div>
    </text>
    <code>
      <coding>
        <system value="http://loinc.org"/>
        <code value="8480-6"/>
        <display value="Systolic blood pressure"/>
      </coding>
      <text value="Systolic blood pressure"/>
    </code>
    <valueQuantity>
      <value value="110.0"/>
      <unit value="mm[Hg]"/>
      <system value="http://unitsofmeasure.org" />
      <code value="mm[Hg]"/>
    </valueQuantity>
    
    <effectiveDateTime value="1998-03-27"/>
    <status value="final"/>
    <subject>
      <reference value="Patient/629528"/>
    </subject>
  </Observation>
  
  </resource>
  <request>
    <method value="POST"/>
    <url value="Observation/28-systolic"/>
  </request>
</entry>
<entry>
  <resource>
    
    
  <Observation>
  <id value="28-diastolic"/>
    <text>
      <status value="generated"/>
      <div xmlns="http://www.w3.org/1999/xhtml">1998-03-27: Diastolic blood pressure = 68 mm[Hg]</div>
    </text>
    <code>
      <coding>
        <system value="http://loinc.org"/>
        <code value="8462-4"/>
        <display value="Diastolic blood pressure"/>
      </coding>
      <text value="Diastolic blood pressure"/>
    </code>
    <valueQuantity>
      <value value="68.0"/>
      <unit value="mm[Hg]"/>
      <system value="http://unitsofmeasure.org" />
      <code value="mm[Hg]"/>
    </valueQuantity>
    
    <effectiveDateTime value="1998-03-27"/>
    <status value="final"/>
    <subject>
      <reference value="Patient/629528"/>
    </subject>
  </Observation>
  
  </resource>
  <request>
    <method value="POST"/>
    <url value="Observation/28-diastolic"/>
  </request>
</entry>
  <entry>
  <resource>
    
    
  <Observation>
    <id value="29-bp"/>
    <text>
      <status value="generated"/>
      <div xmlns="http://www.w3.org/1999/xhtml">1998-08-04: Blood pressure 109/67 mmHg</div>
    </text>
    <code>
      <coding>
        <system value="http://loinc.org"/>
        <code value="55284-4"/>
        <display value="Blood pressure systolic and diastolic"/>
      </coding>
      <text value="Blood pressure systolic and diastolic"/>
    </code>
    <effectiveDateTime value="1998-08-04"/>
    <status value="final"/>
    <subject>
      <reference value="Patient/629528"/>
    </subject>
    <encounter>
      <reference value="Encounter/29"/>
    </encounter>
    

    <component>
        <code>
            <coding>
                <system value="http://loinc.org"/>
                <code value="8480-6"/>
                <display value="Systolic blood pressure"/>
            </coding>
            <text value="Systolic blood pressure"/>
        </code>
        <valueQuantity>
            <value value="109"/>
            <unit value="mmHg"/>
            <system value="http://unitsofmeasure.org" />
            <code value="mm[Hg]"/>
        </valueQuantity>
    </component>

    <component>
        <code>
            <coding>
                <system value="http://loinc.org"/>
                <code value="8462-4"/>
                <display value="Diastolic blood pressure"/>
            </coding>
            <text value="Diastolic blood pressure"/>
        </code>
        <valueQuantity>
            <value value="67"/>
            <unit value="mmHg"/>
            <system value="http://unitsofmeasure.org" />
            <code value="mm[Hg]"/>
        </valueQuantity>
    </component>

  </Observation>
  
  </resource>
  <request>
    <method value="POST"/>
    <url value="Observation/29-bp"/>
  </request>
</entry>
<entry>
  <resource>
    
    
  <Observation>
  <id value="29-systolic"/>
    <text>
      <status value="generated"/>
      <div xmlns="http://www.w3.org/1999/xhtml">1998-08-04: Systolic blood pressure = 109 mm[Hg]</div>
    </text>
    <code>
      <coding>
        <system value="http://loinc.org"/>
        <code value="8480-6"/>
        <display value="Systolic blood pressure"/>
      </coding>
      <text value="Systolic blood pressure"/>
    </code>
    <valueQuantity>
      <value value="109.0"/>
      <unit value="mm[Hg]"/>
      <system value="http://unitsofmeasure.org" />
      <code value="mm[Hg]"/>
    </valueQuantity>
    
    <effectiveDateTime value="1998-08-04"/>
    <status value="final"/>
    <subject>
      <reference value="Patient/629528"/>
    </subject>
  </Observation>
  
  </resource>
  <request>
    <method value="POST"/>
    <url value="Observation/29-systolic"/>
  </request>
</entry>
<entry>
  <resource>
    
    
  <Observation>
  <id value="29-diastolic"/>
    <text>
      <status value="generated"/>
      <div xmlns="http://www.w3.org/1999/xhtml">1998-08-04: Diastolic blood pressure = 67 mm[Hg]</div>
    </text>
    <code>
      <coding>
        <system value="http://loinc.org"/>
        <code value="8462-4"/>
        <display value="Diastolic blood pressure"/>
      </coding>
      <text value="Diastolic blood pressure"/>
    </code>
    <valueQuantity>
      <value value="67.0"/>
      <unit value="mm[Hg]"/>
      <system value="http://unitsofmeasure.org" />
      <code value="mm[Hg]"/>
    </valueQuantity>
    
    <effectiveDateTime value="1998-08-04"/>
    <status value="final"/>
    <subject>
      <reference value="Patient/629528"/>
    </subject>
  </Observation>
  
  </resource>
  <request>
    <method value="POST"/>
    <url value="Observation/29-diastolic"/>
  </request>
</entry>
  <entry>
  <resource>
    
    
  <Observation>
    <id value="30-bp"/>
    <text>
      <status value="generated"/>
      <div xmlns="http://www.w3.org/1999/xhtml">1998-08-05: Blood pressure 115/71 mmHg</div>
    </text>
    <code>
      <coding>
        <system value="http://loinc.org"/>
        <code value="55284-4"/>
        <display value="Blood pressure systolic and diastolic"/>
      </coding>
      <text value="Blood pressure systolic and diastolic"/>
    </code>
    <effectiveDateTime value="1998-08-05"/>
    <status value="final"/>
    <subject>
      <reference value="Patient/629528"/>
    </subject>
    <encounter>
      <reference value="Encounter/30"/>
    </encounter>
    

    <component>
        <code>
            <coding>
                <system value="http://loinc.org"/>
                <code value="8480-6"/>
                <display value="Systolic blood pressure"/>
            </coding>
            <text value="Systolic blood pressure"/>
        </code>
        <valueQuantity>
            <value value="115"/>
            <unit value="mmHg"/>
            <system value="http://unitsofmeasure.org" />
            <code value="mm[Hg]"/>
        </valueQuantity>
    </component>

    <component>
        <code>
            <coding>
                <system value="http://loinc.org"/>
                <code value="8462-4"/>
                <display value="Diastolic blood pressure"/>
            </coding>
            <text value="Diastolic blood pressure"/>
        </code>
        <valueQuantity>
            <value value="71"/>
            <unit value="mmHg"/>
            <system value="http://unitsofmeasure.org" />
            <code value="mm[Hg]"/>
        </valueQuantity>
    </component>

  </Observation>
  
  </resource>
  <request>
    <method value="POST"/>
    <url value="Observation/30-bp"/>
  </request>
</entry>
<entry>
  <resource>
    
    
  <Observation>
  <id value="30-systolic"/>
    <text>
      <status value="generated"/>
      <div xmlns="http://www.w3.org/1999/xhtml">1998-08-05: Systolic blood pressure = 115 mm[Hg]</div>
    </text>
    <code>
      <coding>
        <system value="http://loinc.org"/>
        <code value="8480-6"/>
        <display value="Systolic blood pressure"/>
      </coding>
      <text value="Systolic blood pressure"/>
    </code>
    <valueQuantity>
      <value value="115.0"/>
      <unit value="mm[Hg]"/>
      <system value="http://unitsofmeasure.org" />
      <code value="mm[Hg]"/>
    </valueQuantity>
    
    <effectiveDateTime value="1998-08-05"/>
    <status value="final"/>
    <subject>
      <reference value="Patient/629528"/>
    </subject>
  </Observation>
  
  </resource>
  <request>
    <method value="POST"/>
    <url value="Observation/30-systolic"/>
  </request>
</entry>
<entry>
  <resource>
    
    
  <Observation>
  <id value="30-diastolic"/>
    <text>
      <status value="generated"/>
      <div xmlns="http://www.w3.org/1999/xhtml">1998-08-05: Diastolic blood pressure = 71 mm[Hg]</div>
    </text>
    <code>
      <coding>
        <system value="http://loinc.org"/>
        <code value="8462-4"/>
        <display value="Diastolic blood pressure"/>
      </coding>
      <text value="Diastolic blood pressure"/>
    </code>
    <valueQuantity>
      <value value="71.0"/>
      <unit value="mm[Hg]"/>
      <system value="http://unitsofmeasure.org" />
      <code value="mm[Hg]"/>
    </valueQuantity>
    
    <effectiveDateTime value="1998-08-05"/>
    <status value="final"/>
    <subject>
      <reference value="Patient/629528"/>
    </subject>
  </Observation>
  
  </resource>
  <request>
    <method value="POST"/>
    <url value="Observation/30-diastolic"/>
  </request>
</entry>
  <entry>
  <resource>
    
    
  <Observation>
    <id value="31-bp"/>
    <text>
      <status value="generated"/>
      <div xmlns="http://www.w3.org/1999/xhtml">1998-08-06: Blood pressure 111/69 mmHg</div>
    </text>
    <code>
      <coding>
        <system value="http://loinc.org"/>
        <code value="55284-4"/>
        <display value="Blood pressure systolic and diastolic"/>
      </coding>
      <text value="Blood pressure systolic and diastolic"/>
    </code>
    <effectiveDateTime value="1998-08-06"/>
    <status value="final"/>
    <subject>
      <reference value="Patient/629528"/>
    </subject>
    <encounter>
      <reference value="Encounter/31"/>
    </encounter>
    

    <component>
        <code>
            <coding>
                <system value="http://loinc.org"/>
                <code value="8480-6"/>
                <display value="Systolic blood pressure"/>
            </coding>
            <text value="Systolic blood pressure"/>
        </code>
        <valueQuantity>
            <value value="111"/>
            <unit value="mmHg"/>
            <system value="http://unitsofmeasure.org" />
            <code value="mm[Hg]"/>
        </valueQuantity>
    </component>

    <component>
        <code>
            <coding>
                <system value="http://loinc.org"/>
                <code value="8462-4"/>
                <display value="Diastolic blood pressure"/>
            </coding>
            <text value="Diastolic blood pressure"/>
        </code>
        <valueQuantity>
            <value value="69"/>
            <unit value="mmHg"/>
            <system value="http://unitsofmeasure.org" />
            <code value="mm[Hg]"/>
        </valueQuantity>
    </component>

  </Observation>
  
  </resource>
  <request>
    <method value="POST"/>
    <url value="Observation/31-bp"/>
  </request>
</entry>
<entry>
  <resource>
    
    
  <Observation>
  <id value="31-systolic"/>
    <text>
      <status value="generated"/>
      <div xmlns="http://www.w3.org/1999/xhtml">1998-08-06: Systolic blood pressure = 111 mm[Hg]</div>
    </text>
    <code>
      <coding>
        <system value="http://loinc.org"/>
        <code value="8480-6"/>
        <display value="Systolic blood pressure"/>
      </coding>
      <text value="Systolic blood pressure"/>
    </code>
    <valueQuantity>
      <value value="111.0"/>
      <unit value="mm[Hg]"/>
      <system value="http://unitsofmeasure.org" />
      <code value="mm[Hg]"/>
    </valueQuantity>
    
    <effectiveDateTime value="1998-08-06"/>
    <status value="final"/>
    <subject>
      <reference value="Patient/629528"/>
    </subject>
  </Observation>
  
  </resource>
  <request>
    <method value="POST"/>
    <url value="Observation/31-systolic"/>
  </request>
</entry>
<entry>
  <resource>
    
    
  <Observation>
  <id value="31-diastolic"/>
    <text>
      <status value="generated"/>
      <div xmlns="http://www.w3.org/1999/xhtml">1998-08-06: Diastolic blood pressure = 69 mm[Hg]</div>
    </text>
    <code>
      <coding>
        <system value="http://loinc.org"/>
        <code value="8462-4"/>
        <display value="Diastolic blood pressure"/>
      </coding>
      <text value="Diastolic blood pressure"/>
    </code>
    <valueQuantity>
      <value value="69.0"/>
      <unit value="mm[Hg]"/>
      <system value="http://unitsofmeasure.org" />
      <code value="mm[Hg]"/>
    </valueQuantity>
    
    <effectiveDateTime value="1998-08-06"/>
    <status value="final"/>
    <subject>
      <reference value="Patient/629528"/>
    </subject>
  </Observation>
  
  </resource>
  <request>
    <method value="POST"/>
    <url value="Observation/31-diastolic"/>
  </request>
</entry>
  <entry>
  <resource>
    
    
  <Observation>
    <id value="32-bp"/>
    <text>
      <status value="generated"/>
      <div xmlns="http://www.w3.org/1999/xhtml">1998-12-02: Blood pressure 114/71 mmHg</div>
    </text>
    <code>
      <coding>
        <system value="http://loinc.org"/>
        <code value="55284-4"/>
        <display value="Blood pressure systolic and diastolic"/>
      </coding>
      <text value="Blood pressure systolic and diastolic"/>
    </code>
    <effectiveDateTime value="1998-12-02"/>
    <status value="final"/>
    <subject>
      <reference value="Patient/629528"/>
    </subject>
    <encounter>
      <reference value="Encounter/32"/>
    </encounter>
    

    <component>
        <code>
            <coding>
                <system value="http://loinc.org"/>
                <code value="8480-6"/>
                <display value="Systolic blood pressure"/>
            </coding>
            <text value="Systolic blood pressure"/>
        </code>
        <valueQuantity>
            <value value="114"/>
            <unit value="mmHg"/>
            <system value="http://unitsofmeasure.org" />
            <code value="mm[Hg]"/>
        </valueQuantity>
    </component>

    <component>
        <code>
            <coding>
                <system value="http://loinc.org"/>
                <code value="8462-4"/>
                <display value="Diastolic blood pressure"/>
            </coding>
            <text value="Diastolic blood pressure"/>
        </code>
        <valueQuantity>
            <value value="71"/>
            <unit value="mmHg"/>
            <system value="http://unitsofmeasure.org" />
            <code value="mm[Hg]"/>
        </valueQuantity>
    </component>

  </Observation>
  
  </resource>
  <request>
    <method value="POST"/>
    <url value="Observation/32-bp"/>
  </request>
</entry>
<entry>
  <resource>
    
    
  <Observation>
  <id value="32-systolic"/>
    <text>
      <status value="generated"/>
      <div xmlns="http://www.w3.org/1999/xhtml">1998-12-02: Systolic blood pressure = 114 mm[Hg]</div>
    </text>
    <code>
      <coding>
        <system value="http://loinc.org"/>
        <code value="8480-6"/>
        <display value="Systolic blood pressure"/>
      </coding>
      <text value="Systolic blood pressure"/>
    </code>
    <valueQuantity>
      <value value="114.0"/>
      <unit value="mm[Hg]"/>
      <system value="http://unitsofmeasure.org" />
      <code value="mm[Hg]"/>
    </valueQuantity>
    
    <effectiveDateTime value="1998-12-02"/>
    <status value="final"/>
    <subject>
      <reference value="Patient/629528"/>
    </subject>
  </Observation>
  
  </resource>
  <request>
    <method value="POST"/>
    <url value="Observation/32-systolic"/>
  </request>
</entry>
<entry>
  <resource>
    
    
  <Observation>
  <id value="32-diastolic"/>
    <text>
      <status value="generated"/>
      <div xmlns="http://www.w3.org/1999/xhtml">1998-12-02: Diastolic blood pressure = 71 mm[Hg]</div>
    </text>
    <code>
      <coding>
        <system value="http://loinc.org"/>
        <code value="8462-4"/>
        <display value="Diastolic blood pressure"/>
      </coding>
      <text value="Diastolic blood pressure"/>
    </code>
    <valueQuantity>
      <value value="71.0"/>
      <unit value="mm[Hg]"/>
      <system value="http://unitsofmeasure.org" />
      <code value="mm[Hg]"/>
    </valueQuantity>
    
    <effectiveDateTime value="1998-12-02"/>
    <status value="final"/>
    <subject>
      <reference value="Patient/629528"/>
    </subject>
  </Observation>
  
  </resource>
  <request>
    <method value="POST"/>
    <url value="Observation/32-diastolic"/>
  </request>
</entry>
  <entry>
  <resource>
    
    
  <Observation>
    <id value="33-bp"/>
    <text>
      <status value="generated"/>
      <div xmlns="http://www.w3.org/1999/xhtml">1998-12-08: Blood pressure 119/74 mmHg</div>
    </text>
    <code>
      <coding>
        <system value="http://loinc.org"/>
        <code value="55284-4"/>
        <display value="Blood pressure systolic and diastolic"/>
      </coding>
      <text value="Blood pressure systolic and diastolic"/>
    </code>
    <effectiveDateTime value="1998-12-08"/>
    <status value="final"/>
    <subject>
      <reference value="Patient/629528"/>
    </subject>
    <encounter>
      <reference value="Encounter/33"/>
    </encounter>
    

    <component>
        <code>
            <coding>
                <system value="http://loinc.org"/>
                <code value="8480-6"/>
                <display value="Systolic blood pressure"/>
            </coding>
            <text value="Systolic blood pressure"/>
        </code>
        <valueQuantity>
            <value value="119"/>
            <unit value="mmHg"/>
            <system value="http://unitsofmeasure.org" />
            <code value="mm[Hg]"/>
        </valueQuantity>
    </component>

    <component>
        <code>
            <coding>
                <system value="http://loinc.org"/>
                <code value="8462-4"/>
                <display value="Diastolic blood pressure"/>
            </coding>
            <text value="Diastolic blood pressure"/>
        </code>
        <valueQuantity>
            <value value="74"/>
            <unit value="mmHg"/>
            <system value="http://unitsofmeasure.org" />
            <code value="mm[Hg]"/>
        </valueQuantity>
    </component>

  </Observation>
  
  </resource>
  <request>
    <method value="POST"/>
    <url value="Observation/33-bp"/>
  </request>
</entry>
<entry>
  <resource>
    
    
  <Observation>
  <id value="33-systolic"/>
    <text>
      <status value="generated"/>
      <div xmlns="http://www.w3.org/1999/xhtml">1998-12-08: Systolic blood pressure = 119 mm[Hg]</div>
    </text>
    <code>
      <coding>
        <system value="http://loinc.org"/>
        <code value="8480-6"/>
        <display value="Systolic blood pressure"/>
      </coding>
      <text value="Systolic blood pressure"/>
    </code>
    <valueQuantity>
      <value value="119.0"/>
      <unit value="mm[Hg]"/>
      <system value="http://unitsofmeasure.org" />
      <code value="mm[Hg]"/>
    </valueQuantity>
    
    <effectiveDateTime value="1998-12-08"/>
    <status value="final"/>
    <subject>
      <reference value="Patient/629528"/>
    </subject>
  </Observation>
  
  </resource>
  <request>
    <method value="POST"/>
    <url value="Observation/33-systolic"/>
  </request>
</entry>
<entry>
  <resource>
    
    
  <Observation>
  <id value="33-diastolic"/>
    <text>
      <status value="generated"/>
      <div xmlns="http://www.w3.org/1999/xhtml">1998-12-08: Diastolic blood pressure = 74 mm[Hg]</div>
    </text>
    <code>
      <coding>
        <system value="http://loinc.org"/>
        <code value="8462-4"/>
        <display value="Diastolic blood pressure"/>
      </coding>
      <text value="Diastolic blood pressure"/>
    </code>
    <valueQuantity>
      <value value="74.0"/>
      <unit value="mm[Hg]"/>
      <system value="http://unitsofmeasure.org" />
      <code value="mm[Hg]"/>
    </valueQuantity>
    
    <effectiveDateTime value="1998-12-08"/>
    <status value="final"/>
    <subject>
      <reference value="Patient/629528"/>
    </subject>
  </Observation>
  
  </resource>
  <request>
    <method value="POST"/>
    <url value="Observation/33-diastolic"/>
  </request>
</entry>
  <entry>
  <resource>
    
    
  <Observation>
    <id value="34-bp"/>
    <text>
      <status value="generated"/>
      <div xmlns="http://www.w3.org/1999/xhtml">1998-12-09: Blood pressure 120/75 mmHg</div>
    </text>
    <code>
      <coding>
        <system value="http://loinc.org"/>
        <code value="55284-4"/>
        <display value="Blood pressure systolic and diastolic"/>
      </coding>
      <text value="Blood pressure systolic and diastolic"/>
    </code>
    <effectiveDateTime value="1998-12-09"/>
    <status value="final"/>
    <subject>
      <reference value="Patient/629528"/>
    </subject>
    <encounter>
      <reference value="Encounter/34"/>
    </encounter>
    

    <component>
        <code>
            <coding>
                <system value="http://loinc.org"/>
                <code value="8480-6"/>
                <display value="Systolic blood pressure"/>
            </coding>
            <text value="Systolic blood pressure"/>
        </code>
        <valueQuantity>
            <value value="120"/>
            <unit value="mmHg"/>
            <system value="http://unitsofmeasure.org" />
            <code value="mm[Hg]"/>
        </valueQuantity>
    </component>

    <component>
        <code>
            <coding>
                <system value="http://loinc.org"/>
                <code value="8462-4"/>
                <display value="Diastolic blood pressure"/>
            </coding>
            <text value="Diastolic blood pressure"/>
        </code>
        <valueQuantity>
            <value value="75"/>
            <unit value="mmHg"/>
            <system value="http://unitsofmeasure.org" />
            <code value="mm[Hg]"/>
        </valueQuantity>
    </component>

  </Observation>
  
  </resource>
  <request>
    <method value="POST"/>
    <url value="Observation/34-bp"/>
  </request>
</entry>
<entry>
  <resource>
    
    
  <Observation>
  <id value="34-systolic"/>
    <text>
      <status value="generated"/>
      <div xmlns="http://www.w3.org/1999/xhtml">1998-12-09: Systolic blood pressure = 120 mm[Hg]</div>
    </text>
    <code>
      <coding>
        <system value="http://loinc.org"/>
        <code value="8480-6"/>
        <display value="Systolic blood pressure"/>
      </coding>
      <text value="Systolic blood pressure"/>
    </code>
    <valueQuantity>
      <value value="120.0"/>
      <unit value="mm[Hg]"/>
      <system value="http://unitsofmeasure.org" />
      <code value="mm[Hg]"/>
    </valueQuantity>
    
    <effectiveDateTime value="1998-12-09"/>
    <status value="final"/>
    <subject>
      <reference value="Patient/629528"/>
    </subject>
  </Observation>
  
  </resource>
  <request>
    <method value="POST"/>
    <url value="Observation/34-systolic"/>
  </request>
</entry>
<entry>
  <resource>
    
    
  <Observation>
  <id value="34-diastolic"/>
    <text>
      <status value="generated"/>
      <div xmlns="http://www.w3.org/1999/xhtml">1998-12-09: Diastolic blood pressure = 75 mm[Hg]</div>
    </text>
    <code>
      <coding>
        <system value="http://loinc.org"/>
        <code value="8462-4"/>
        <display value="Diastolic blood pressure"/>
      </coding>
      <text value="Diastolic blood pressure"/>
    </code>
    <valueQuantity>
      <value value="75.0"/>
      <unit value="mm[Hg]"/>
      <system value="http://unitsofmeasure.org" />
      <code value="mm[Hg]"/>
    </valueQuantity>
    
    <effectiveDateTime value="1998-12-09"/>
    <status value="final"/>
    <subject>
      <reference value="Patient/629528"/>
    </subject>
  </Observation>
  
  </resource>
  <request>
    <method value="POST"/>
    <url value="Observation/34-diastolic"/>
  </request>
</entry>
  <entry>
  <resource>
    
    
  <Observation>
    <id value="35-bp"/>
    <text>
      <status value="generated"/>
      <div xmlns="http://www.w3.org/1999/xhtml">2000-01-11: Blood pressure 113/70 mmHg</div>
    </text>
    <code>
      <coding>
        <system value="http://loinc.org"/>
        <code value="55284-4"/>
        <display value="Blood pressure systolic and diastolic"/>
      </coding>
      <text value="Blood pressure systolic and diastolic"/>
    </code>
    <effectiveDateTime value="2000-01-11"/>
    <status value="final"/>
    <subject>
      <reference value="Patient/629528"/>
    </subject>
    <encounter>
      <reference value="Encounter/35"/>
    </encounter>
    

    <component>
        <code>
            <coding>
                <system value="http://loinc.org"/>
                <code value="8480-6"/>
                <display value="Systolic blood pressure"/>
            </coding>
            <text value="Systolic blood pressure"/>
        </code>
        <valueQuantity>
            <value value="113"/>
            <unit value="mmHg"/>
            <system value="http://unitsofmeasure.org" />
            <code value="mm[Hg]"/>
        </valueQuantity>
    </component>

    <component>
        <code>
            <coding>
                <system value="http://loinc.org"/>
                <code value="8462-4"/>
                <display value="Diastolic blood pressure"/>
            </coding>
            <text value="Diastolic blood pressure"/>
        </code>
        <valueQuantity>
            <value value="70"/>
            <unit value="mmHg"/>
            <system value="http://unitsofmeasure.org" />
            <code value="mm[Hg]"/>
        </valueQuantity>
    </component>

  </Observation>
  
  </resource>
  <request>
    <method value="POST"/>
    <url value="Observation/35-bp"/>
  </request>
</entry>
<entry>
  <resource>
    
    
  <Observation>
  <id value="35-systolic"/>
    <text>
      <status value="generated"/>
      <div xmlns="http://www.w3.org/1999/xhtml">2000-01-11: Systolic blood pressure = 113 mm[Hg]</div>
    </text>
    <code>
      <coding>
        <system value="http://loinc.org"/>
        <code value="8480-6"/>
        <display value="Systolic blood pressure"/>
      </coding>
      <text value="Systolic blood pressure"/>
    </code>
    <valueQuantity>
      <value value="113.0"/>
      <unit value="mm[Hg]"/>
      <system value="http://unitsofmeasure.org" />
      <code value="mm[Hg]"/>
    </valueQuantity>
    
    <effectiveDateTime value="2000-01-11"/>
    <status value="final"/>
    <subject>
      <reference value="Patient/629528"/>
    </subject>
  </Observation>
  
  </resource>
  <request>
    <method value="POST"/>
    <url value="Observation/35-systolic"/>
  </request>
</entry>
<entry>
  <resource>
    
    
  <Observation>
  <id value="35-diastolic"/>
    <text>
      <status value="generated"/>
      <div xmlns="http://www.w3.org/1999/xhtml">2000-01-11: Diastolic blood pressure = 70 mm[Hg]</div>
    </text>
    <code>
      <coding>
        <system value="http://loinc.org"/>
        <code value="8462-4"/>
        <display value="Diastolic blood pressure"/>
      </coding>
      <text value="Diastolic blood pressure"/>
    </code>
    <valueQuantity>
      <value value="70.0"/>
      <unit value="mm[Hg]"/>
      <system value="http://unitsofmeasure.org" />
      <code value="mm[Hg]"/>
    </valueQuantity>
    
    <effectiveDateTime value="2000-01-11"/>
    <status value="final"/>
    <subject>
      <reference value="Patient/629528"/>
    </subject>
  </Observation>
  
  </resource>
  <request>
    <method value="POST"/>
    <url value="Observation/35-diastolic"/>
  </request>
</entry>
  <entry>
  <resource>
    
    
  <Observation>
    <id value="36-bp"/>
    <text>
      <status value="generated"/>
      <div xmlns="http://www.w3.org/1999/xhtml">2001-01-08: Blood pressure 116/73 mmHg</div>
    </text>
    <code>
      <coding>
        <system value="http://loinc.org"/>
        <code value="55284-4"/>
        <display value="Blood pressure systolic and diastolic"/>
      </coding>
      <text value="Blood pressure systolic and diastolic"/>
    </code>
    <effectiveDateTime value="2001-01-08"/>
    <status value="final"/>
    <subject>
      <reference value="Patient/629528"/>
    </subject>
    <encounter>
      <reference value="Encounter/36"/>
    </encounter>
    

    <component>
        <code>
            <coding>
                <system value="http://loinc.org"/>
                <code value="8480-6"/>
                <display value="Systolic blood pressure"/>
            </coding>
            <text value="Systolic blood pressure"/>
        </code>
        <valueQuantity>
            <value value="116"/>
            <unit value="mmHg"/>
            <system value="http://unitsofmeasure.org" />
            <code value="mm[Hg]"/>
        </valueQuantity>
    </component>

    <component>
        <code>
            <coding>
                <system value="http://loinc.org"/>
                <code value="8462-4"/>
                <display value="Diastolic blood pressure"/>
            </coding>
            <text value="Diastolic blood pressure"/>
        </code>
        <valueQuantity>
            <value value="73"/>
            <unit value="mmHg"/>
            <system value="http://unitsofmeasure.org" />
            <code value="mm[Hg]"/>
        </valueQuantity>
    </component>

  </Observation>
  
  </resource>
  <request>
    <method value="POST"/>
    <url value="Observation/36-bp"/>
  </request>
</entry>
<entry>
  <resource>
    
    
  <Observation>
  <id value="36-systolic"/>
    <text>
      <status value="generated"/>
      <div xmlns="http://www.w3.org/1999/xhtml">2001-01-08: Systolic blood pressure = 116 mm[Hg]</div>
    </text>
    <code>
      <coding>
        <system value="http://loinc.org"/>
        <code value="8480-6"/>
        <display value="Systolic blood pressure"/>
      </coding>
      <text value="Systolic blood pressure"/>
    </code>
    <valueQuantity>
      <value value="116.0"/>
      <unit value="mm[Hg]"/>
      <system value="http://unitsofmeasure.org" />
      <code value="mm[Hg]"/>
    </valueQuantity>
    
    <effectiveDateTime value="2001-01-08"/>
    <status value="final"/>
    <subject>
      <reference value="Patient/629528"/>
    </subject>
  </Observation>
  
  </resource>
  <request>
    <method value="POST"/>
    <url value="Observation/36-systolic"/>
  </request>
</entry>
<entry>
  <resource>
    
    
  <Observation>
  <id value="36-diastolic"/>
    <text>
      <status value="generated"/>
      <div xmlns="http://www.w3.org/1999/xhtml">2001-01-08: Diastolic blood pressure = 73 mm[Hg]</div>
    </text>
    <code>
      <coding>
        <system value="http://loinc.org"/>
        <code value="8462-4"/>
        <display value="Diastolic blood pressure"/>
      </coding>
      <text value="Diastolic blood pressure"/>
    </code>
    <valueQuantity>
      <value value="73.0"/>
      <unit value="mm[Hg]"/>
      <system value="http://unitsofmeasure.org" />
      <code value="mm[Hg]"/>
    </valueQuantity>
    
    <effectiveDateTime value="2001-01-08"/>
    <status value="final"/>
    <subject>
      <reference value="Patient/629528"/>
    </subject>
  </Observation>
  
  </resource>
  <request>
    <method value="POST"/>
    <url value="Observation/36-diastolic"/>
  </request>
</entry>
  <entry>
  <resource>
    
    
  <Observation>
    <id value="37-bp"/>
    <text>
      <status value="generated"/>
      <div xmlns="http://www.w3.org/1999/xhtml">2004-05-10: Blood pressure 124/79 mmHg</div>
    </text>
    <code>
      <coding>
        <system value="http://loinc.org"/>
        <code value="55284-4"/>
        <display value="Blood pressure systolic and diastolic"/>
      </coding>
      <text value="Blood pressure systolic and diastolic"/>
    </code>
    <effectiveDateTime value="2004-05-10"/>
    <status value="final"/>
    <subject>
      <reference value="Patient/629528"/>
    </subject>
    <encounter>
      <reference value="Encounter/37"/>
    </encounter>
    

    <component>
        <code>
            <coding>
                <system value="http://loinc.org"/>
                <code value="8480-6"/>
                <display value="Systolic blood pressure"/>
            </coding>
            <text value="Systolic blood pressure"/>
        </code>
        <valueQuantity>
            <value value="124"/>
            <unit value="mmHg"/>
            <system value="http://unitsofmeasure.org" />
            <code value="mm[Hg]"/>
        </valueQuantity>
    </component>

    <component>
        <code>
            <coding>
                <system value="http://loinc.org"/>
                <code value="8462-4"/>
                <display value="Diastolic blood pressure"/>
            </coding>
            <text value="Diastolic blood pressure"/>
        </code>
        <valueQuantity>
            <value value="79"/>
            <unit value="mmHg"/>
            <system value="http://unitsofmeasure.org" />
            <code value="mm[Hg]"/>
        </valueQuantity>
    </component>

  </Observation>
  
  </resource>
  <request>
    <method value="POST"/>
    <url value="Observation/37-bp"/>
  </request>
</entry>
<entry>
  <resource>
    
    
  <Observation>
  <id value="37-systolic"/>
    <text>
      <status value="generated"/>
      <div xmlns="http://www.w3.org/1999/xhtml">2004-05-10: Systolic blood pressure = 124 mm[Hg]</div>
    </text>
    <code>
      <coding>
        <system value="http://loinc.org"/>
        <code value="8480-6"/>
        <display value="Systolic blood pressure"/>
      </coding>
      <text value="Systolic blood pressure"/>
    </code>
    <valueQuantity>
      <value value="124.0"/>
      <unit value="mm[Hg]"/>
      <system value="http://unitsofmeasure.org" />
      <code value="mm[Hg]"/>
    </valueQuantity>
    
    <effectiveDateTime value="2004-05-10"/>
    <status value="final"/>
    <subject>
      <reference value="Patient/629528"/>
    </subject>
  </Observation>
  
  </resource>
  <request>
    <method value="POST"/>
    <url value="Observation/37-systolic"/>
  </request>
</entry>
<entry>
  <resource>
    
    
  <Observation>
  <id value="37-diastolic"/>
    <text>
      <status value="generated"/>
      <div xmlns="http://www.w3.org/1999/xhtml">2004-05-10: Diastolic blood pressure = 79 mm[Hg]</div>
    </text>
    <code>
      <coding>
        <system value="http://loinc.org"/>
        <code value="8462-4"/>
        <display value="Diastolic blood pressure"/>
      </coding>
      <text value="Diastolic blood pressure"/>
    </code>
    <valueQuantity>
      <value value="79.0"/>
      <unit value="mm[Hg]"/>
      <system value="http://unitsofmeasure.org" />
      <code value="mm[Hg]"/>
    </valueQuantity>
    
    <effectiveDateTime value="2004-05-10"/>
    <status value="final"/>
    <subject>
      <reference value="Patient/629528"/>
    </subject>
  </Observation>
  
  </resource>
  <request>
    <method value="POST"/>
    <url value="Observation/37-diastolic"/>
  </request>
</entry>
  <entry>
  <resource>
    
    
  <Observation>
    <id value="38-bp"/>
    <text>
      <status value="generated"/>
      <div xmlns="http://www.w3.org/1999/xhtml">2004-05-11: Blood pressure 120/76 mmHg</div>
    </text>
    <code>
      <coding>
        <system value="http://loinc.org"/>
        <code value="55284-4"/>
        <display value="Blood pressure systolic and diastolic"/>
      </coding>
      <text value="Blood pressure systolic and diastolic"/>
    </code>
    <effectiveDateTime value="2004-05-11"/>
    <status value="final"/>
    <subject>
      <reference value="Patient/629528"/>
    </subject>
    <encounter>
      <reference value="Encounter/38"/>
    </encounter>
    

    <component>
        <code>
            <coding>
                <system value="http://loinc.org"/>
                <code value="8480-6"/>
                <display value="Systolic blood pressure"/>
            </coding>
            <text value="Systolic blood pressure"/>
        </code>
        <valueQuantity>
            <value value="120"/>
            <unit value="mmHg"/>
            <system value="http://unitsofmeasure.org" />
            <code value="mm[Hg]"/>
        </valueQuantity>
    </component>

    <component>
        <code>
            <coding>
                <system value="http://loinc.org"/>
                <code value="8462-4"/>
                <display value="Diastolic blood pressure"/>
            </coding>
            <text value="Diastolic blood pressure"/>
        </code>
        <valueQuantity>
            <value value="76"/>
            <unit value="mmHg"/>
            <system value="http://unitsofmeasure.org" />
            <code value="mm[Hg]"/>
        </valueQuantity>
    </component>

  </Observation>
  
  </resource>
  <request>
    <method value="POST"/>
    <url value="Observation/38-bp"/>
  </request>
</entry>
<entry>
  <resource>
    
    
  <Observation>
  <id value="38-systolic"/>
    <text>
      <status value="generated"/>
      <div xmlns="http://www.w3.org/1999/xhtml">2004-05-11: Systolic blood pressure = 120 mm[Hg]</div>
    </text>
    <code>
      <coding>
        <system value="http://loinc.org"/>
        <code value="8480-6"/>
        <display value="Systolic blood pressure"/>
      </coding>
      <text value="Systolic blood pressure"/>
    </code>
    <valueQuantity>
      <value value="120.0"/>
      <unit value="mm[Hg]"/>
      <system value="http://unitsofmeasure.org" />
      <code value="mm[Hg]"/>
    </valueQuantity>
    
    <effectiveDateTime value="2004-05-11"/>
    <status value="final"/>
    <subject>
      <reference value="Patient/629528"/>
    </subject>
  </Observation>
  
  </resource>
  <request>
    <method value="POST"/>
    <url value="Observation/38-systolic"/>
  </request>
</entry>
<entry>
  <resource>
    
    
  <Observation>
  <id value="38-diastolic"/>
    <text>
      <status value="generated"/>
      <div xmlns="http://www.w3.org/1999/xhtml">2004-05-11: Diastolic blood pressure = 76 mm[Hg]</div>
    </text>
    <code>
      <coding>
        <system value="http://loinc.org"/>
        <code value="8462-4"/>
        <display value="Diastolic blood pressure"/>
      </coding>
      <text value="Diastolic blood pressure"/>
    </code>
    <valueQuantity>
      <value value="76.0"/>
      <unit value="mm[Hg]"/>
      <system value="http://unitsofmeasure.org" />
      <code value="mm[Hg]"/>
    </valueQuantity>
    
    <effectiveDateTime value="2004-05-11"/>
    <status value="final"/>
    <subject>
      <reference value="Patient/629528"/>
    </subject>
  </Observation>
  
  </resource>
  <request>
    <method value="POST"/>
    <url value="Observation/38-diastolic"/>
  </request>
</entry>
  <entry>
  <resource>
    
    
  <Observation>
    <id value="39-bp"/>
    <text>
      <status value="generated"/>
      <div xmlns="http://www.w3.org/1999/xhtml">2004-09-03: Blood pressure 121/77 mmHg</div>
    </text>
    <code>
      <coding>
        <system value="http://loinc.org"/>
        <code value="55284-4"/>
        <display value="Blood pressure systolic and diastolic"/>
      </coding>
      <text value="Blood pressure systolic and diastolic"/>
    </code>
    <effectiveDateTime value="2004-09-03"/>
    <status value="final"/>
    <subject>
      <reference value="Patient/629528"/>
    </subject>
    <encounter>
      <reference value="Encounter/39"/>
    </encounter>
    

    <component>
        <code>
            <coding>
                <system value="http://loinc.org"/>
                <code value="8480-6"/>
                <display value="Systolic blood pressure"/>
            </coding>
            <text value="Systolic blood pressure"/>
        </code>
        <valueQuantity>
            <value value="121"/>
            <unit value="mmHg"/>
            <system value="http://unitsofmeasure.org" />
            <code value="mm[Hg]"/>
        </valueQuantity>
    </component>

    <component>
        <code>
            <coding>
                <system value="http://loinc.org"/>
                <code value="8462-4"/>
                <display value="Diastolic blood pressure"/>
            </coding>
            <text value="Diastolic blood pressure"/>
        </code>
        <valueQuantity>
            <value value="77"/>
            <unit value="mmHg"/>
            <system value="http://unitsofmeasure.org" />
            <code value="mm[Hg]"/>
        </valueQuantity>
    </component>

  </Observation>
  
  </resource>
  <request>
    <method value="POST"/>
    <url value="Observation/39-bp"/>
  </request>
</entry>
<entry>
  <resource>
    
    
  <Observation>
  <id value="39-systolic"/>
    <text>
      <status value="generated"/>
      <div xmlns="http://www.w3.org/1999/xhtml">2004-09-03: Systolic blood pressure = 121 mm[Hg]</div>
    </text>
    <code>
      <coding>
        <system value="http://loinc.org"/>
        <code value="8480-6"/>
        <display value="Systolic blood pressure"/>
      </coding>
      <text value="Systolic blood pressure"/>
    </code>
    <valueQuantity>
      <value value="121.0"/>
      <unit value="mm[Hg]"/>
      <system value="http://unitsofmeasure.org" />
      <code value="mm[Hg]"/>
    </valueQuantity>
    
    <effectiveDateTime value="2004-09-03"/>
    <status value="final"/>
    <subject>
      <reference value="Patient/629528"/>
    </subject>
  </Observation>
  
  </resource>
  <request>
    <method value="POST"/>
    <url value="Observation/39-systolic"/>
  </request>
</entry>
<entry>
  <resource>
    
    
  <Observation>
  <id value="39-diastolic"/>
    <text>
      <status value="generated"/>
      <div xmlns="http://www.w3.org/1999/xhtml">2004-09-03: Diastolic blood pressure = 77 mm[Hg]</div>
    </text>
    <code>
      <coding>
        <system value="http://loinc.org"/>
        <code value="8462-4"/>
        <display value="Diastolic blood pressure"/>
      </coding>
      <text value="Diastolic blood pressure"/>
    </code>
    <valueQuantity>
      <value value="77.0"/>
      <unit value="mm[Hg]"/>
      <system value="http://unitsofmeasure.org" />
      <code value="mm[Hg]"/>
    </valueQuantity>
    
    <effectiveDateTime value="2004-09-03"/>
    <status value="final"/>
    <subject>
      <reference value="Patient/629528"/>
    </subject>
  </Observation>
  
  </resource>
  <request>
    <method value="POST"/>
    <url value="Observation/39-diastolic"/>
  </request>
</entry>
<entry>
  <resource>
    
    
  <Observation>
  <id value="25-height"/>
    <text>
      <status value="generated"/>
      <div xmlns="http://www.w3.org/1999/xhtml">1997-07-29: height = 166.116 cm</div>
    </text>
    <code>
      <coding>
        <system value="http://loinc.org"/>
        <code value="8302-2"/>
        <display value="height"/>
      </coding>
      <text value="height"/>
    </code>
    <valueQuantity>
      <value value="166.116"/>
      <unit value="cm"/>
      <system value="http://unitsofmeasure.org" />
      <code value="cm"/>
    </valueQuantity>
    
    <effectiveDateTime value="1997-07-29"/>
    <status value="final"/>
    <subject>
      <reference value="Patient/629528"/>
    </subject>
    <encounter>
      <reference value="Encounter/25"/>
    </encounter>
    
  </Observation>
  
  </resource>
  <request>
    <method value="POST"/>
    <url value="Observation/25-height"/>
  </request>
</entry>
<entry>
  <resource>
    
    
  <Observation>
  <id value="25-heartrate"/>
    <text>
      <status value="generated"/>
      <div xmlns="http://www.w3.org/1999/xhtml">1997-07-29: heart_rate = 65.0 {beats}/min</div>
    </text>
    <code>
      <coding>
        <system value="http://loinc.org"/>
        <code value="8867-4"/>
        <display value="heart_rate"/>
      </coding>
      <text value="heart_rate"/>
    </code>
    <valueQuantity>
      <value value="65.0"/>
      <unit value="{beats}/min"/>
      <system value="http://unitsofmeasure.org" />
      <code value="{beats}/min"/>
    </valueQuantity>
    
    <effectiveDateTime value="1997-07-29"/>
    <status value="final"/>
    <subject>
      <reference value="Patient/629528"/>
    </subject>
    <encounter>
      <reference value="Encounter/25"/>
    </encounter>
    
  </Observation>
  
  </resource>
  <request>
    <method value="POST"/>
    <url value="Observation/25-heartrate"/>
  </request>
</entry>
<entry>
  <resource>
    
    
  <Observation>
  <id value="25-respiratoryrate"/>
    <text>
      <status value="generated"/>
      <div xmlns="http://www.w3.org/1999/xhtml">1997-07-29: respiratory_rate = 18.0 {breaths}/min</div>
    </text>
    <code>
      <coding>
        <system value="http://loinc.org"/>
        <code value="9279-1"/>
        <display value="respiratory_rate"/>
      </coding>
      <text value="respiratory_rate"/>
    </code>
    <valueQuantity>
      <value value="18.0"/>
      <unit value="{breaths}/min"/>
      <system value="http://unitsofmeasure.org" />
      <code value="{breaths}/min"/>
    </valueQuantity>
    
    <effectiveDateTime value="1997-07-29"/>
    <status value="final"/>
    <subject>
      <reference value="Patient/629528"/>
    </subject>
    <encounter>
      <reference value="Encounter/25"/>
    </encounter>
    
  </Observation>
  
  </resource>
  <request>
    <method value="POST"/>
    <url value="Observation/25-respiratoryrate"/>
  </request>
</entry>
<entry>
  <resource>
    
    
  <Observation>
  <id value="25-temperature"/>
    <text>
      <status value="generated"/>
      <div xmlns="http://www.w3.org/1999/xhtml">1997-07-29: temperature = 36.55556 Cel</div>
    </text>
    <code>
      <coding>
        <system value="http://loinc.org"/>
        <code value="8310-5"/>
        <display value="temperature"/>
      </coding>
      <text value="temperature"/>
    </code>
    <valueQuantity>
      <value value="36.55556"/>
      <unit value="Cel"/>
      <system value="http://unitsofmeasure.org" />
      <code value="Cel"/>
    </valueQuantity>
    
    <effectiveDateTime value="1997-07-29"/>
    <status value="final"/>
    <subject>
      <reference value="Patient/629528"/>
    </subject>
    <encounter>
      <reference value="Encounter/25"/>
    </encounter>
    
  </Observation>
  
  </resource>
  <request>
    <method value="POST"/>
    <url value="Observation/25-temperature"/>
  </request>
</entry>
<entry>
  <resource>
    
    
  <Observation>
  <id value="25-weight"/>
    <text>
      <status value="generated"/>
      <div xmlns="http://www.w3.org/1999/xhtml">1997-07-29: weight = 38.0564 kg</div>
    </text>
    <code>
      <coding>
        <system value="http://loinc.org"/>
        <code value="3141-9"/>
        <display value="weight"/>
      </coding>
      <text value="weight"/>
    </code>
    <valueQuantity>
      <value value="38.0564"/>
      <unit value="kg"/>
      <system value="http://unitsofmeasure.org" />
      <code value="kg"/>
    </valueQuantity>
    
    <effectiveDateTime value="1997-07-29"/>
    <status value="final"/>
    <subject>
      <reference value="Patient/629528"/>
    </subject>
    <encounter>
      <reference value="Encounter/25"/>
    </encounter>
    
  </Observation>
  
  </resource>
  <request>
    <method value="POST"/>
    <url value="Observation/25-weight"/>
  </request>
</entry>
<entry>
  <resource>
    
    
  <Observation>
  <id value="25-bmi"/>
    <text>
      <status value="generated"/>
      <div xmlns="http://www.w3.org/1999/xhtml">1997-07-29: bmi = 13.8 kg/m2</div>
    </text>
    <code>
      <coding>
        <system value="http://loinc.org"/>
        <code value="39156-5"/>
        <display value="bmi"/>
      </coding>
      <text value="bmi"/>
    </code>
    <valueQuantity>
      <value value="13.8"/>
      <unit value="kg/m2"/>
      <system value="http://unitsofmeasure.org" />
      <code value="kg/m2"/>
    </valueQuantity>
    
    <effectiveDateTime value="1997-07-29"/>
    <status value="final"/>
    <subject>
      <reference value="Patient/629528"/>
    </subject>
    <encounter>
      <reference value="Encounter/25"/>
    </encounter>
    
  </Observation>
  
  </resource>
  <request>
    <method value="POST"/>
    <url value="Observation/25-bmi"/>
  </request>
</entry>
<entry>
  <resource>
    
    
  <Observation>
  <id value="25-oxygensaturation"/>
    <text>
      <status value="generated"/>
      <div xmlns="http://www.w3.org/1999/xhtml">1997-07-29: oxygen_saturation = 93.0 %{HemoglobinSaturation}</div>
    </text>
    <code>
      <coding>
        <system value="http://loinc.org"/>
        <code value="2710-2"/>
        <display value="oxygen_saturation"/>
      </coding>
      <text value="oxygen_saturation"/>
    </code>
    <valueQuantity>
      <value value="93.0"/>
      <unit value="%{HemoglobinSaturation}"/>
      <system value="http://unitsofmeasure.org" />
      <code value="%{HemoglobinSaturation}"/>
    </valueQuantity>
    
    <effectiveDateTime value="1997-07-29"/>
    <status value="final"/>
    <subject>
      <reference value="Patient/629528"/>
    </subject>
    <encounter>
      <reference value="Encounter/25"/>
    </encounter>
    
  </Observation>
  
  </resource>
  <request>
    <method value="POST"/>
    <url value="Observation/25-oxygensaturation"/>
  </request>
</entry>
<entry>
  <resource>
    
    
  <Observation>
  <id value="26-height"/>
    <text>
      <status value="generated"/>
      <div xmlns="http://www.w3.org/1999/xhtml">1997-07-31: height = 166.116 cm</div>
    </text>
    <code>
      <coding>
        <system value="http://loinc.org"/>
        <code value="8302-2"/>
        <display value="height"/>
      </coding>
      <text value="height"/>
    </code>
    <valueQuantity>
      <value value="166.116"/>
      <unit value="cm"/>
      <system value="http://unitsofmeasure.org" />
      <code value="cm"/>
    </valueQuantity>
    
    <effectiveDateTime value="1997-07-31"/>
    <status value="final"/>
    <subject>
      <reference value="Patient/629528"/>
    </subject>
    <encounter>
      <reference value="Encounter/26"/>
    </encounter>
    
  </Observation>
  
  </resource>
  <request>
    <method value="POST"/>
    <url value="Observation/26-height"/>
  </request>
</entry>
<entry>
  <resource>
    
    
  <Observation>
  <id value="26-heartrate"/>
    <text>
      <status value="generated"/>
      <div xmlns="http://www.w3.org/1999/xhtml">1997-07-31: heart_rate = 68.0 {beats}/min</div>
    </text>
    <code>
      <coding>
        <system value="http://loinc.org"/>
        <code value="8867-4"/>
        <display value="heart_rate"/>
      </coding>
      <text value="heart_rate"/>
    </code>
    <valueQuantity>
      <value value="68.0"/>
      <unit value="{beats}/min"/>
      <system value="http://unitsofmeasure.org" />
      <code value="{beats}/min"/>
    </valueQuantity>
    
    <effectiveDateTime value="1997-07-31"/>
    <status value="final"/>
    <subject>
      <reference value="Patient/629528"/>
    </subject>
    <encounter>
      <reference value="Encounter/26"/>
    </encounter>
    
  </Observation>
  
  </resource>
  <request>
    <method value="POST"/>
    <url value="Observation/26-heartrate"/>
  </request>
</entry>
<entry>
  <resource>
    
    
  <Observation>
  <id value="26-respiratoryrate"/>
    <text>
      <status value="generated"/>
      <div xmlns="http://www.w3.org/1999/xhtml">1997-07-31: respiratory_rate = 18.0 {breaths}/min</div>
    </text>
    <code>
      <coding>
        <system value="http://loinc.org"/>
        <code value="9279-1"/>
        <display value="respiratory_rate"/>
      </coding>
      <text value="respiratory_rate"/>
    </code>
    <valueQuantity>
      <value value="18.0"/>
      <unit value="{breaths}/min"/>
      <system value="http://unitsofmeasure.org" />
      <code value="{breaths}/min"/>
    </valueQuantity>
    
    <effectiveDateTime value="1997-07-31"/>
    <status value="final"/>
    <subject>
      <reference value="Patient/629528"/>
    </subject>
    <encounter>
      <reference value="Encounter/26"/>
    </encounter>
    
  </Observation>
  
  </resource>
  <request>
    <method value="POST"/>
    <url value="Observation/26-respiratoryrate"/>
  </request>
</entry>
<entry>
  <resource>
    
    
  <Observation>
  <id value="26-temperature"/>
    <text>
      <status value="generated"/>
      <div xmlns="http://www.w3.org/1999/xhtml">1997-07-31: temperature = 36.55556 Cel</div>
    </text>
    <code>
      <coding>
        <system value="http://loinc.org"/>
        <code value="8310-5"/>
        <display value="temperature"/>
      </coding>
      <text value="temperature"/>
    </code>
    <valueQuantity>
      <value value="36.55556"/>
      <unit value="Cel"/>
      <system value="http://unitsofmeasure.org" />
      <code value="Cel"/>
    </valueQuantity>
    
    <effectiveDateTime value="1997-07-31"/>
    <status value="final"/>
    <subject>
      <reference value="Patient/629528"/>
    </subject>
    <encounter>
      <reference value="Encounter/26"/>
    </encounter>
    
  </Observation>
  
  </resource>
  <request>
    <method value="POST"/>
    <url value="Observation/26-temperature"/>
  </request>
</entry>
<entry>
  <resource>
    
    
  <Observation>
  <id value="26-weight"/>
    <text>
      <status value="generated"/>
      <div xmlns="http://www.w3.org/1999/xhtml">1997-07-31: weight = 39.78005 kg</div>
    </text>
    <code>
      <coding>
        <system value="http://loinc.org"/>
        <code value="3141-9"/>
        <display value="weight"/>
      </coding>
      <text value="weight"/>
    </code>
    <valueQuantity>
      <value value="39.78005"/>
      <unit value="kg"/>
      <system value="http://unitsofmeasure.org" />
      <code value="kg"/>
    </valueQuantity>
    
    <effectiveDateTime value="1997-07-31"/>
    <status value="final"/>
    <subject>
      <reference value="Patient/629528"/>
    </subject>
    <encounter>
      <reference value="Encounter/26"/>
    </encounter>
    
  </Observation>
  
  </resource>
  <request>
    <method value="POST"/>
    <url value="Observation/26-weight"/>
  </request>
</entry>
<entry>
  <resource>
    
    
  <Observation>
  <id value="26-bmi"/>
    <text>
      <status value="generated"/>
      <div xmlns="http://www.w3.org/1999/xhtml">1997-07-31: bmi = 14.4 kg/m2</div>
    </text>
    <code>
      <coding>
        <system value="http://loinc.org"/>
        <code value="39156-5"/>
        <display value="bmi"/>
      </coding>
      <text value="bmi"/>
    </code>
    <valueQuantity>
      <value value="14.4"/>
      <unit value="kg/m2"/>
      <system value="http://unitsofmeasure.org" />
      <code value="kg/m2"/>
    </valueQuantity>
    
    <effectiveDateTime value="1997-07-31"/>
    <status value="final"/>
    <subject>
      <reference value="Patient/629528"/>
    </subject>
    <encounter>
      <reference value="Encounter/26"/>
    </encounter>
    
  </Observation>
  
  </resource>
  <request>
    <method value="POST"/>
    <url value="Observation/26-bmi"/>
  </request>
</entry>
<entry>
  <resource>
    
    
  <Observation>
  <id value="26-oxygensaturation"/>
    <text>
      <status value="generated"/>
      <div xmlns="http://www.w3.org/1999/xhtml">1997-07-31: oxygen_saturation = 93.0 %{HemoglobinSaturation}</div>
    </text>
    <code>
      <coding>
        <system value="http://loinc.org"/>
        <code value="2710-2"/>
        <display value="oxygen_saturation"/>
      </coding>
      <text value="oxygen_saturation"/>
    </code>
    <valueQuantity>
      <value value="93.0"/>
      <unit value="%{HemoglobinSaturation}"/>
      <system value="http://unitsofmeasure.org" />
      <code value="%{HemoglobinSaturation}"/>
    </valueQuantity>
    
    <effectiveDateTime value="1997-07-31"/>
    <status value="final"/>
    <subject>
      <reference value="Patient/629528"/>
    </subject>
    <encounter>
      <reference value="Encounter/26"/>
    </encounter>
    
  </Observation>
  
  </resource>
  <request>
    <method value="POST"/>
    <url value="Observation/26-oxygensaturation"/>
  </request>
</entry>
<entry>
  <resource>
    
    
  <Observation>
  <id value="27-height"/>
    <text>
      <status value="generated"/>
      <div xmlns="http://www.w3.org/1999/xhtml">1997-10-24: height = 166.116 cm</div>
    </text>
    <code>
      <coding>
        <system value="http://loinc.org"/>
        <code value="8302-2"/>
        <display value="height"/>
      </coding>
      <text value="height"/>
    </code>
    <valueQuantity>
      <value value="166.116"/>
      <unit value="cm"/>
      <system value="http://unitsofmeasure.org" />
      <code value="cm"/>
    </valueQuantity>
    
    <effectiveDateTime value="1997-10-24"/>
    <status value="final"/>
    <subject>
      <reference value="Patient/629528"/>
    </subject>
    <encounter>
      <reference value="Encounter/27"/>
    </encounter>
    
  </Observation>
  
  </resource>
  <request>
    <method value="POST"/>
    <url value="Observation/27-height"/>
  </request>
</entry>
<entry>
  <resource>
    
    
  <Observation>
  <id value="27-heartrate"/>
    <text>
      <status value="generated"/>
      <div xmlns="http://www.w3.org/1999/xhtml">1997-10-24: heart_rate = 69.0 {beats}/min</div>
    </text>
    <code>
      <coding>
        <system value="http://loinc.org"/>
        <code value="8867-4"/>
        <display value="heart_rate"/>
      </coding>
      <text value="heart_rate"/>
    </code>
    <valueQuantity>
      <value value="69.0"/>
      <unit value="{beats}/min"/>
      <system value="http://unitsofmeasure.org" />
      <code value="{beats}/min"/>
    </valueQuantity>
    
    <effectiveDateTime value="1997-10-24"/>
    <status value="final"/>
    <subject>
      <reference value="Patient/629528"/>
    </subject>
    <encounter>
      <reference value="Encounter/27"/>
    </encounter>
    
  </Observation>
  
  </resource>
  <request>
    <method value="POST"/>
    <url value="Observation/27-heartrate"/>
  </request>
</entry>
<entry>
  <resource>
    
    
  <Observation>
  <id value="27-respiratoryrate"/>
    <text>
      <status value="generated"/>
      <div xmlns="http://www.w3.org/1999/xhtml">1997-10-24: respiratory_rate = 18.0 {breaths}/min</div>
    </text>
    <code>
      <coding>
        <system value="http://loinc.org"/>
        <code value="9279-1"/>
        <display value="respiratory_rate"/>
      </coding>
      <text value="respiratory_rate"/>
    </code>
    <valueQuantity>
      <value value="18.0"/>
      <unit value="{breaths}/min"/>
      <system value="http://unitsofmeasure.org" />
      <code value="{breaths}/min"/>
    </valueQuantity>
    
    <effectiveDateTime value="1997-10-24"/>
    <status value="final"/>
    <subject>
      <reference value="Patient/629528"/>
    </subject>
    <encounter>
      <reference value="Encounter/27"/>
    </encounter>
    
  </Observation>
  
  </resource>
  <request>
    <method value="POST"/>
    <url value="Observation/27-respiratoryrate"/>
  </request>
</entry>
<entry>
  <resource>
    
    
  <Observation>
  <id value="27-temperature"/>
    <text>
      <status value="generated"/>
      <div xmlns="http://www.w3.org/1999/xhtml">1997-10-24: temperature = 36.55556 Cel</div>
    </text>
    <code>
      <coding>
        <system value="http://loinc.org"/>
        <code value="8310-5"/>
        <display value="temperature"/>
      </coding>
      <text value="temperature"/>
    </code>
    <valueQuantity>
      <value value="36.55556"/>
      <unit value="Cel"/>
      <system value="http://unitsofmeasure.org" />
      <code value="Cel"/>
    </valueQuantity>
    
    <effectiveDateTime value="1997-10-24"/>
    <status value="final"/>
    <subject>
      <reference value="Patient/629528"/>
    </subject>
    <encounter>
      <reference value="Encounter/27"/>
    </encounter>
    
  </Observation>
  
  </resource>
  <request>
    <method value="POST"/>
    <url value="Observation/27-temperature"/>
  </request>
</entry>
<entry>
  <resource>
    
    
  <Observation>
  <id value="27-weight"/>
    <text>
      <status value="generated"/>
      <div xmlns="http://www.w3.org/1999/xhtml">1997-10-24: weight = 32.65865 kg</div>
    </text>
    <code>
      <coding>
        <system value="http://loinc.org"/>
        <code value="3141-9"/>
        <display value="weight"/>
      </coding>
      <text value="weight"/>
    </code>
    <valueQuantity>
      <value value="32.65865"/>
      <unit value="kg"/>
      <system value="http://unitsofmeasure.org" />
      <code value="kg"/>
    </valueQuantity>
    
    <effectiveDateTime value="1997-10-24"/>
    <status value="final"/>
    <subject>
      <reference value="Patient/629528"/>
    </subject>
    <encounter>
      <reference value="Encounter/27"/>
    </encounter>
    
  </Observation>
  
  </resource>
  <request>
    <method value="POST"/>
    <url value="Observation/27-weight"/>
  </request>
</entry>
<entry>
  <resource>
    
    
  <Observation>
  <id value="27-bmi"/>
    <text>
      <status value="generated"/>
      <div xmlns="http://www.w3.org/1999/xhtml">1997-10-24: bmi = 11.8 kg/m2</div>
    </text>
    <code>
      <coding>
        <system value="http://loinc.org"/>
        <code value="39156-5"/>
        <display value="bmi"/>
      </coding>
      <text value="bmi"/>
    </code>
    <valueQuantity>
      <value value="11.8"/>
      <unit value="kg/m2"/>
      <system value="http://unitsofmeasure.org" />
      <code value="kg/m2"/>
    </valueQuantity>
    
    <effectiveDateTime value="1997-10-24"/>
    <status value="final"/>
    <subject>
      <reference value="Patient/629528"/>
    </subject>
    <encounter>
      <reference value="Encounter/27"/>
    </encounter>
    
  </Observation>
  
  </resource>
  <request>
    <method value="POST"/>
    <url value="Observation/27-bmi"/>
  </request>
</entry>
<entry>
  <resource>
    
    
  <Observation>
  <id value="27-oxygensaturation"/>
    <text>
      <status value="generated"/>
      <div xmlns="http://www.w3.org/1999/xhtml">1997-10-24: oxygen_saturation = 93.0 %{HemoglobinSaturation}</div>
    </text>
    <code>
      <coding>
        <system value="http://loinc.org"/>
        <code value="2710-2"/>
        <display value="oxygen_saturation"/>
      </coding>
      <text value="oxygen_saturation"/>
    </code>
    <valueQuantity>
      <value value="93.0"/>
      <unit value="%{HemoglobinSaturation}"/>
      <system value="http://unitsofmeasure.org" />
      <code value="%{HemoglobinSaturation}"/>
    </valueQuantity>
    
    <effectiveDateTime value="1997-10-24"/>
    <status value="final"/>
    <subject>
      <reference value="Patient/629528"/>
    </subject>
    <encounter>
      <reference value="Encounter/27"/>
    </encounter>
    
  </Observation>
  
  </resource>
  <request>
    <method value="POST"/>
    <url value="Observation/27-oxygensaturation"/>
  </request>
</entry>
<entry>
  <resource>
    
    
  <Observation>
  <id value="28-height"/>
    <text>
      <status value="generated"/>
      <div xmlns="http://www.w3.org/1999/xhtml">1998-03-27: height = 166.624 cm</div>
    </text>
    <code>
      <coding>
        <system value="http://loinc.org"/>
        <code value="8302-2"/>
        <display value="height"/>
      </coding>
      <text value="height"/>
    </code>
    <valueQuantity>
      <value value="166.624"/>
      <unit value="cm"/>
      <system value="http://unitsofmeasure.org" />
      <code value="cm"/>
    </valueQuantity>
    
    <effectiveDateTime value="1998-03-27"/>
    <status value="final"/>
    <subject>
      <reference value="Patient/629528"/>
    </subject>
    <encounter>
      <reference value="Encounter/28"/>
    </encounter>
    
  </Observation>
  
  </resource>
  <request>
    <method value="POST"/>
    <url value="Observation/28-height"/>
  </request>
</entry>
<entry>
  <resource>
    
    
  <Observation>
  <id value="28-heartrate"/>
    <text>
      <status value="generated"/>
      <div xmlns="http://www.w3.org/1999/xhtml">1998-03-27: heart_rate = 68.0 {beats}/min</div>
    </text>
    <code>
      <coding>
        <system value="http://loinc.org"/>
        <code value="8867-4"/>
        <display value="heart_rate"/>
      </coding>
      <text value="heart_rate"/>
    </code>
    <valueQuantity>
      <value value="68.0"/>
      <unit value="{beats}/min"/>
      <system value="http://unitsofmeasure.org" />
      <code value="{beats}/min"/>
    </valueQuantity>
    
    <effectiveDateTime value="1998-03-27"/>
    <status value="final"/>
    <subject>
      <reference value="Patient/629528"/>
    </subject>
    <encounter>
      <reference value="Encounter/28"/>
    </encounter>
    
  </Observation>
  
  </resource>
  <request>
    <method value="POST"/>
    <url value="Observation/28-heartrate"/>
  </request>
</entry>
<entry>
  <resource>
    
    
  <Observation>
  <id value="28-respiratoryrate"/>
    <text>
      <status value="generated"/>
      <div xmlns="http://www.w3.org/1999/xhtml">1998-03-27: respiratory_rate = 18.0 {breaths}/min</div>
    </text>
    <code>
      <coding>
        <system value="http://loinc.org"/>
        <code value="9279-1"/>
        <display value="respiratory_rate"/>
      </coding>
      <text value="respiratory_rate"/>
    </code>
    <valueQuantity>
      <value value="18.0"/>
      <unit value="{breaths}/min"/>
      <system value="http://unitsofmeasure.org" />
      <code value="{breaths}/min"/>
    </valueQuantity>
    
    <effectiveDateTime value="1998-03-27"/>
    <status value="final"/>
    <subject>
      <reference value="Patient/629528"/>
    </subject>
    <encounter>
      <reference value="Encounter/28"/>
    </encounter>
    
  </Observation>
  
  </resource>
  <request>
    <method value="POST"/>
    <url value="Observation/28-respiratoryrate"/>
  </request>
</entry>
<entry>
  <resource>
    
    
  <Observation>
  <id value="28-temperature"/>
    <text>
      <status value="generated"/>
      <div xmlns="http://www.w3.org/1999/xhtml">1998-03-27: temperature = 36.55556 Cel</div>
    </text>
    <code>
      <coding>
        <system value="http://loinc.org"/>
        <code value="8310-5"/>
        <display value="temperature"/>
      </coding>
      <text value="temperature"/>
    </code>
    <valueQuantity>
      <value value="36.55556"/>
      <unit value="Cel"/>
      <system value="http://unitsofmeasure.org" />
      <code value="Cel"/>
    </valueQuantity>
    
    <effectiveDateTime value="1998-03-27"/>
    <status value="final"/>
    <subject>
      <reference value="Patient/629528"/>
    </subject>
    <encounter>
      <reference value="Encounter/28"/>
    </encounter>
    
  </Observation>
  
  </resource>
  <request>
    <method value="POST"/>
    <url value="Observation/28-temperature"/>
  </request>
</entry>
<entry>
  <resource>
    
    
  <Observation>
  <id value="28-weight"/>
    <text>
      <status value="generated"/>
      <div xmlns="http://www.w3.org/1999/xhtml">1998-03-27: weight = 35.8338 kg</div>
    </text>
    <code>
      <coding>
        <system value="http://loinc.org"/>
        <code value="3141-9"/>
        <display value="weight"/>
      </coding>
      <text value="weight"/>
    </code>
    <valueQuantity>
      <value value="35.8338"/>
      <unit value="kg"/>
      <system value="http://unitsofmeasure.org" />
      <code value="kg"/>
    </valueQuantity>
    
    <effectiveDateTime value="1998-03-27"/>
    <status value="final"/>
    <subject>
      <reference value="Patient/629528"/>
    </subject>
    <encounter>
      <reference value="Encounter/28"/>
    </encounter>
    
  </Observation>
  
  </resource>
  <request>
    <method value="POST"/>
    <url value="Observation/28-weight"/>
  </request>
</entry>
<entry>
  <resource>
    
    
  <Observation>
  <id value="28-bmi"/>
    <text>
      <status value="generated"/>
      <div xmlns="http://www.w3.org/1999/xhtml">1998-03-27: bmi = 12.9 kg/m2</div>
    </text>
    <code>
      <coding>
        <system value="http://loinc.org"/>
        <code value="39156-5"/>
        <display value="bmi"/>
      </coding>
      <text value="bmi"/>
    </code>
    <valueQuantity>
      <value value="12.9"/>
      <unit value="kg/m2"/>
      <system value="http://unitsofmeasure.org" />
      <code value="kg/m2"/>
    </valueQuantity>
    
    <effectiveDateTime value="1998-03-27"/>
    <status value="final"/>
    <subject>
      <reference value="Patient/629528"/>
    </subject>
    <encounter>
      <reference value="Encounter/28"/>
    </encounter>
    
  </Observation>
  
  </resource>
  <request>
    <method value="POST"/>
    <url value="Observation/28-bmi"/>
  </request>
</entry>
<entry>
  <resource>
    
    
  <Observation>
  <id value="28-oxygensaturation"/>
    <text>
      <status value="generated"/>
      <div xmlns="http://www.w3.org/1999/xhtml">1998-03-27: oxygen_saturation = 99.0 %{HemoglobinSaturation}</div>
    </text>
    <code>
      <coding>
        <system value="http://loinc.org"/>
        <code value="2710-2"/>
        <display value="oxygen_saturation"/>
      </coding>
      <text value="oxygen_saturation"/>
    </code>
    <valueQuantity>
      <value value="99.0"/>
      <unit value="%{HemoglobinSaturation}"/>
      <system value="http://unitsofmeasure.org" />
      <code value="%{HemoglobinSaturation}"/>
    </valueQuantity>
    
    <effectiveDateTime value="1998-03-27"/>
    <status value="final"/>
    <subject>
      <reference value="Patient/629528"/>
    </subject>
    <encounter>
      <reference value="Encounter/28"/>
    </encounter>
    
  </Observation>
  
  </resource>
  <request>
    <method value="POST"/>
    <url value="Observation/28-oxygensaturation"/>
  </request>
</entry>
<entry>
  <resource>
    
    
  <Observation>
  <id value="29-height"/>
    <text>
      <status value="generated"/>
      <div xmlns="http://www.w3.org/1999/xhtml">1998-08-04: height = 166.878 cm</div>
    </text>
    <code>
      <coding>
        <system value="http://loinc.org"/>
        <code value="8302-2"/>
        <display value="height"/>
      </coding>
      <text value="height"/>
    </code>
    <valueQuantity>
      <value value="166.878"/>
      <unit value="cm"/>
      <system value="http://unitsofmeasure.org" />
      <code value="cm"/>
    </valueQuantity>
    
    <effectiveDateTime value="1998-08-04"/>
    <status value="final"/>
    <subject>
      <reference value="Patient/629528"/>
    </subject>
    <encounter>
      <reference value="Encounter/29"/>
    </encounter>
    
  </Observation>
  
  </resource>
  <request>
    <method value="POST"/>
    <url value="Observation/29-height"/>
  </request>
</entry>
<entry>
  <resource>
    
    
  <Observation>
  <id value="29-heartrate"/>
    <text>
      <status value="generated"/>
      <div xmlns="http://www.w3.org/1999/xhtml">1998-08-04: heart_rate = 67.0 {beats}/min</div>
    </text>
    <code>
      <coding>
        <system value="http://loinc.org"/>
        <code value="8867-4"/>
        <display value="heart_rate"/>
      </coding>
      <text value="heart_rate"/>
    </code>
    <valueQuantity>
      <value value="67.0"/>
      <unit value="{beats}/min"/>
      <system value="http://unitsofmeasure.org" />
      <code value="{beats}/min"/>
    </valueQuantity>
    
    <effectiveDateTime value="1998-08-04"/>
    <status value="final"/>
    <subject>
      <reference value="Patient/629528"/>
    </subject>
    <encounter>
      <reference value="Encounter/29"/>
    </encounter>
    
  </Observation>
  
  </resource>
  <request>
    <method value="POST"/>
    <url value="Observation/29-heartrate"/>
  </request>
</entry>
<entry>
  <resource>
    
    
  <Observation>
  <id value="29-respiratoryrate"/>
    <text>
      <status value="generated"/>
      <div xmlns="http://www.w3.org/1999/xhtml">1998-08-04: respiratory_rate = 18.0 {breaths}/min</div>
    </text>
    <code>
      <coding>
        <system value="http://loinc.org"/>
        <code value="9279-1"/>
        <display value="respiratory_rate"/>
      </coding>
      <text value="respiratory_rate"/>
    </code>
    <valueQuantity>
      <value value="18.0"/>
      <unit value="{breaths}/min"/>
      <system value="http://unitsofmeasure.org" />
      <code value="{breaths}/min"/>
    </valueQuantity>
    
    <effectiveDateTime value="1998-08-04"/>
    <status value="final"/>
    <subject>
      <reference value="Patient/629528"/>
    </subject>
    <encounter>
      <reference value="Encounter/29"/>
    </encounter>
    
  </Observation>
  
  </resource>
  <request>
    <method value="POST"/>
    <url value="Observation/29-respiratoryrate"/>
  </request>
</entry>
<entry>
  <resource>
    
    
  <Observation>
  <id value="29-temperature"/>
    <text>
      <status value="generated"/>
      <div xmlns="http://www.w3.org/1999/xhtml">1998-08-04: temperature = 36.55556 Cel</div>
    </text>
    <code>
      <coding>
        <system value="http://loinc.org"/>
        <code value="8310-5"/>
        <display value="temperature"/>
      </coding>
      <text value="temperature"/>
    </code>
    <valueQuantity>
      <value value="36.55556"/>
      <unit value="Cel"/>
      <system value="http://unitsofmeasure.org" />
      <code value="Cel"/>
    </valueQuantity>
    
    <effectiveDateTime value="1998-08-04"/>
    <status value="final"/>
    <subject>
      <reference value="Patient/629528"/>
    </subject>
    <encounter>
      <reference value="Encounter/29"/>
    </encounter>
    
  </Observation>
  
  </resource>
  <request>
    <method value="POST"/>
    <url value="Observation/29-temperature"/>
  </request>
</entry>
<entry>
  <resource>
    
    
  <Observation>
  <id value="29-weight"/>
    <text>
      <status value="generated"/>
      <div xmlns="http://www.w3.org/1999/xhtml">1998-08-04: weight = 29.07527 kg</div>
    </text>
    <code>
      <coding>
        <system value="http://loinc.org"/>
        <code value="3141-9"/>
        <display value="weight"/>
      </coding>
      <text value="weight"/>
    </code>
    <valueQuantity>
      <value value="29.07527"/>
      <unit value="kg"/>
      <system value="http://unitsofmeasure.org" />
      <code value="kg"/>
    </valueQuantity>
    
    <effectiveDateTime value="1998-08-04"/>
    <status value="final"/>
    <subject>
      <reference value="Patient/629528"/>
    </subject>
    <encounter>
      <reference value="Encounter/29"/>
    </encounter>
    
  </Observation>
  
  </resource>
  <request>
    <method value="POST"/>
    <url value="Observation/29-weight"/>
  </request>
</entry>
<entry>
  <resource>
    
    
  <Observation>
  <id value="29-bmi"/>
    <text>
      <status value="generated"/>
      <div xmlns="http://www.w3.org/1999/xhtml">1998-08-04: bmi = 10.4 kg/m2</div>
    </text>
    <code>
      <coding>
        <system value="http://loinc.org"/>
        <code value="39156-5"/>
        <display value="bmi"/>
      </coding>
      <text value="bmi"/>
    </code>
    <valueQuantity>
      <value value="10.4"/>
      <unit value="kg/m2"/>
      <system value="http://unitsofmeasure.org" />
      <code value="kg/m2"/>
    </valueQuantity>
    
    <effectiveDateTime value="1998-08-04"/>
    <status value="final"/>
    <subject>
      <reference value="Patient/629528"/>
    </subject>
    <encounter>
      <reference value="Encounter/29"/>
    </encounter>
    
  </Observation>
  
  </resource>
  <request>
    <method value="POST"/>
    <url value="Observation/29-bmi"/>
  </request>
</entry>
<entry>
  <resource>
    
    
  <Observation>
  <id value="29-oxygensaturation"/>
    <text>
      <status value="generated"/>
      <div xmlns="http://www.w3.org/1999/xhtml">1998-08-04: oxygen_saturation = 99.0 %{HemoglobinSaturation}</div>
    </text>
    <code>
      <coding>
        <system value="http://loinc.org"/>
        <code value="2710-2"/>
        <display value="oxygen_saturation"/>
      </coding>
      <text value="oxygen_saturation"/>
    </code>
    <valueQuantity>
      <value value="99.0"/>
      <unit value="%{HemoglobinSaturation}"/>
      <system value="http://unitsofmeasure.org" />
      <code value="%{HemoglobinSaturation}"/>
    </valueQuantity>
    
    <effectiveDateTime value="1998-08-04"/>
    <status value="final"/>
    <subject>
      <reference value="Patient/629528"/>
    </subject>
    <encounter>
      <reference value="Encounter/29"/>
    </encounter>
    
  </Observation>
  
  </resource>
  <request>
    <method value="POST"/>
    <url value="Observation/29-oxygensaturation"/>
  </request>
</entry>
<entry>
  <resource>
    
    
  <Observation>
  <id value="30-height"/>
    <text>
      <status value="generated"/>
      <div xmlns="http://www.w3.org/1999/xhtml">1998-08-05: height = 166.878 cm</div>
    </text>
    <code>
      <coding>
        <system value="http://loinc.org"/>
        <code value="8302-2"/>
        <display value="height"/>
      </coding>
      <text value="height"/>
    </code>
    <valueQuantity>
      <value value="166.878"/>
      <unit value="cm"/>
      <system value="http://unitsofmeasure.org" />
      <code value="cm"/>
    </valueQuantity>
    
    <effectiveDateTime value="1998-08-05"/>
    <status value="final"/>
    <subject>
      <reference value="Patient/629528"/>
    </subject>
    <encounter>
      <reference value="Encounter/30"/>
    </encounter>
    
  </Observation>
  
  </resource>
  <request>
    <method value="POST"/>
    <url value="Observation/30-height"/>
  </request>
</entry>
<entry>
  <resource>
    
    
  <Observation>
  <id value="30-heartrate"/>
    <text>
      <status value="generated"/>
      <div xmlns="http://www.w3.org/1999/xhtml">1998-08-05: heart_rate = 71.0 {beats}/min</div>
    </text>
    <code>
      <coding>
        <system value="http://loinc.org"/>
        <code value="8867-4"/>
        <display value="heart_rate"/>
      </coding>
      <text value="heart_rate"/>
    </code>
    <valueQuantity>
      <value value="71.0"/>
      <unit value="{beats}/min"/>
      <system value="http://unitsofmeasure.org" />
      <code value="{beats}/min"/>
    </valueQuantity>
    
    <effectiveDateTime value="1998-08-05"/>
    <status value="final"/>
    <subject>
      <reference value="Patient/629528"/>
    </subject>
    <encounter>
      <reference value="Encounter/30"/>
    </encounter>
    
  </Observation>
  
  </resource>
  <request>
    <method value="POST"/>
    <url value="Observation/30-heartrate"/>
  </request>
</entry>
<entry>
  <resource>
    
    
  <Observation>
  <id value="30-respiratoryrate"/>
    <text>
      <status value="generated"/>
      <div xmlns="http://www.w3.org/1999/xhtml">1998-08-05: respiratory_rate = 18.0 {breaths}/min</div>
    </text>
    <code>
      <coding>
        <system value="http://loinc.org"/>
        <code value="9279-1"/>
        <display value="respiratory_rate"/>
      </coding>
      <text value="respiratory_rate"/>
    </code>
    <valueQuantity>
      <value value="18.0"/>
      <unit value="{breaths}/min"/>
      <system value="http://unitsofmeasure.org" />
      <code value="{breaths}/min"/>
    </valueQuantity>
    
    <effectiveDateTime value="1998-08-05"/>
    <status value="final"/>
    <subject>
      <reference value="Patient/629528"/>
    </subject>
    <encounter>
      <reference value="Encounter/30"/>
    </encounter>
    
  </Observation>
  
  </resource>
  <request>
    <method value="POST"/>
    <url value="Observation/30-respiratoryrate"/>
  </request>
</entry>
<entry>
  <resource>
    
    
  <Observation>
  <id value="30-temperature"/>
    <text>
      <status value="generated"/>
      <div xmlns="http://www.w3.org/1999/xhtml">1998-08-05: temperature = 36.55556 Cel</div>
    </text>
    <code>
      <coding>
        <system value="http://loinc.org"/>
        <code value="8310-5"/>
        <display value="temperature"/>
      </coding>
      <text value="temperature"/>
    </code>
    <valueQuantity>
      <value value="36.55556"/>
      <unit value="Cel"/>
      <system value="http://unitsofmeasure.org" />
      <code value="Cel"/>
    </valueQuantity>
    
    <effectiveDateTime value="1998-08-05"/>
    <status value="final"/>
    <subject>
      <reference value="Patient/629528"/>
    </subject>
    <encounter>
      <reference value="Encounter/30"/>
    </encounter>
    
  </Observation>
  
  </resource>
  <request>
    <method value="POST"/>
    <url value="Observation/30-temperature"/>
  </request>
</entry>
<entry>
  <resource>
    
    
  <Observation>
  <id value="30-weight"/>
    <text>
      <status value="generated"/>
      <div xmlns="http://www.w3.org/1999/xhtml">1998-08-05: weight = 35.24413 kg</div>
    </text>
    <code>
      <coding>
        <system value="http://loinc.org"/>
        <code value="3141-9"/>
        <display value="weight"/>
      </coding>
      <text value="weight"/>
    </code>
    <valueQuantity>
      <value value="35.24413"/>
      <unit value="kg"/>
      <system value="http://unitsofmeasure.org" />
      <code value="kg"/>
    </valueQuantity>
    
    <effectiveDateTime value="1998-08-05"/>
    <status value="final"/>
    <subject>
      <reference value="Patient/629528"/>
    </subject>
    <encounter>
      <reference value="Encounter/30"/>
    </encounter>
    
  </Observation>
  
  </resource>
  <request>
    <method value="POST"/>
    <url value="Observation/30-weight"/>
  </request>
</entry>
<entry>
  <resource>
    
    
  <Observation>
  <id value="30-bmi"/>
    <text>
      <status value="generated"/>
      <div xmlns="http://www.w3.org/1999/xhtml">1998-08-05: bmi = 12.7 kg/m2</div>
    </text>
    <code>
      <coding>
        <system value="http://loinc.org"/>
        <code value="39156-5"/>
        <display value="bmi"/>
      </coding>
      <text value="bmi"/>
    </code>
    <valueQuantity>
      <value value="12.7"/>
      <unit value="kg/m2"/>
      <system value="http://unitsofmeasure.org" />
      <code value="kg/m2"/>
    </valueQuantity>
    
    <effectiveDateTime value="1998-08-05"/>
    <status value="final"/>
    <subject>
      <reference value="Patient/629528"/>
    </subject>
    <encounter>
      <reference value="Encounter/30"/>
    </encounter>
    
  </Observation>
  
  </resource>
  <request>
    <method value="POST"/>
    <url value="Observation/30-bmi"/>
  </request>
</entry>
<entry>
  <resource>
    
    
  <Observation>
  <id value="30-oxygensaturation"/>
    <text>
      <status value="generated"/>
      <div xmlns="http://www.w3.org/1999/xhtml">1998-08-05: oxygen_saturation = 99.0 %{HemoglobinSaturation}</div>
    </text>
    <code>
      <coding>
        <system value="http://loinc.org"/>
        <code value="2710-2"/>
        <display value="oxygen_saturation"/>
      </coding>
      <text value="oxygen_saturation"/>
    </code>
    <valueQuantity>
      <value value="99.0"/>
      <unit value="%{HemoglobinSaturation}"/>
      <system value="http://unitsofmeasure.org" />
      <code value="%{HemoglobinSaturation}"/>
    </valueQuantity>
    
    <effectiveDateTime value="1998-08-05"/>
    <status value="final"/>
    <subject>
      <reference value="Patient/629528"/>
    </subject>
    <encounter>
      <reference value="Encounter/30"/>
    </encounter>
    
  </Observation>
  
  </resource>
  <request>
    <method value="POST"/>
    <url value="Observation/30-oxygensaturation"/>
  </request>
</entry>
<entry>
  <resource>
    
    
  <Observation>
  <id value="31-height"/>
    <text>
      <status value="generated"/>
      <div xmlns="http://www.w3.org/1999/xhtml">1998-08-06: height = 166.878 cm</div>
    </text>
    <code>
      <coding>
        <system value="http://loinc.org"/>
        <code value="8302-2"/>
        <display value="height"/>
      </coding>
      <text value="height"/>
    </code>
    <valueQuantity>
      <value value="166.878"/>
      <unit value="cm"/>
      <system value="http://unitsofmeasure.org" />
      <code value="cm"/>
    </valueQuantity>
    
    <effectiveDateTime value="1998-08-06"/>
    <status value="final"/>
    <subject>
      <reference value="Patient/629528"/>
    </subject>
    <encounter>
      <reference value="Encounter/31"/>
    </encounter>
    
  </Observation>
  
  </resource>
  <request>
    <method value="POST"/>
    <url value="Observation/31-height"/>
  </request>
</entry>
<entry>
  <resource>
    
    
  <Observation>
  <id value="31-heartrate"/>
    <text>
      <status value="generated"/>
      <div xmlns="http://www.w3.org/1999/xhtml">1998-08-06: heart_rate = 69.0 {beats}/min</div>
    </text>
    <code>
      <coding>
        <system value="http://loinc.org"/>
        <code value="8867-4"/>
        <display value="heart_rate"/>
      </coding>
      <text value="heart_rate"/>
    </code>
    <valueQuantity>
      <value value="69.0"/>
      <unit value="{beats}/min"/>
      <system value="http://unitsofmeasure.org" />
      <code value="{beats}/min"/>
    </valueQuantity>
    
    <effectiveDateTime value="1998-08-06"/>
    <status value="final"/>
    <subject>
      <reference value="Patient/629528"/>
    </subject>
    <encounter>
      <reference value="Encounter/31"/>
    </encounter>
    
  </Observation>
  
  </resource>
  <request>
    <method value="POST"/>
    <url value="Observation/31-heartrate"/>
  </request>
</entry>
<entry>
  <resource>
    
    
  <Observation>
  <id value="31-respiratoryrate"/>
    <text>
      <status value="generated"/>
      <div xmlns="http://www.w3.org/1999/xhtml">1998-08-06: respiratory_rate = 18.0 {breaths}/min</div>
    </text>
    <code>
      <coding>
        <system value="http://loinc.org"/>
        <code value="9279-1"/>
        <display value="respiratory_rate"/>
      </coding>
      <text value="respiratory_rate"/>
    </code>
    <valueQuantity>
      <value value="18.0"/>
      <unit value="{breaths}/min"/>
      <system value="http://unitsofmeasure.org" />
      <code value="{breaths}/min"/>
    </valueQuantity>
    
    <effectiveDateTime value="1998-08-06"/>
    <status value="final"/>
    <subject>
      <reference value="Patient/629528"/>
    </subject>
    <encounter>
      <reference value="Encounter/31"/>
    </encounter>
    
  </Observation>
  
  </resource>
  <request>
    <method value="POST"/>
    <url value="Observation/31-respiratoryrate"/>
  </request>
</entry>
<entry>
  <resource>
    
    
  <Observation>
  <id value="31-temperature"/>
    <text>
      <status value="generated"/>
      <div xmlns="http://www.w3.org/1999/xhtml">1998-08-06: temperature = 36.55556 Cel</div>
    </text>
    <code>
      <coding>
        <system value="http://loinc.org"/>
        <code value="8310-5"/>
        <display value="temperature"/>
      </coding>
      <text value="temperature"/>
    </code>
    <valueQuantity>
      <value value="36.55556"/>
      <unit value="Cel"/>
      <system value="http://unitsofmeasure.org" />
      <code value="Cel"/>
    </valueQuantity>
    
    <effectiveDateTime value="1998-08-06"/>
    <status value="final"/>
    <subject>
      <reference value="Patient/629528"/>
    </subject>
    <encounter>
      <reference value="Encounter/31"/>
    </encounter>
    
  </Observation>
  
  </resource>
  <request>
    <method value="POST"/>
    <url value="Observation/31-temperature"/>
  </request>
</entry>
<entry>
  <resource>
    
    
  <Observation>
  <id value="31-weight"/>
    <text>
      <status value="generated"/>
      <div xmlns="http://www.w3.org/1999/xhtml">1998-08-06: weight = 39.68933 kg</div>
    </text>
    <code>
      <coding>
        <system value="http://loinc.org"/>
        <code value="3141-9"/>
        <display value="weight"/>
      </coding>
      <text value="weight"/>
    </code>
    <valueQuantity>
      <value value="39.68933"/>
      <unit value="kg"/>
      <system value="http://unitsofmeasure.org" />
      <code value="kg"/>
    </valueQuantity>
    
    <effectiveDateTime value="1998-08-06"/>
    <status value="final"/>
    <subject>
      <reference value="Patient/629528"/>
    </subject>
    <encounter>
      <reference value="Encounter/31"/>
    </encounter>
    
  </Observation>
  
  </resource>
  <request>
    <method value="POST"/>
    <url value="Observation/31-weight"/>
  </request>
</entry>
<entry>
  <resource>
    
    
  <Observation>
  <id value="31-bmi"/>
    <text>
      <status value="generated"/>
      <div xmlns="http://www.w3.org/1999/xhtml">1998-08-06: bmi = 14.2 kg/m2</div>
    </text>
    <code>
      <coding>
        <system value="http://loinc.org"/>
        <code value="39156-5"/>
        <display value="bmi"/>
      </coding>
      <text value="bmi"/>
    </code>
    <valueQuantity>
      <value value="14.2"/>
      <unit value="kg/m2"/>
      <system value="http://unitsofmeasure.org" />
      <code value="kg/m2"/>
    </valueQuantity>
    
    <effectiveDateTime value="1998-08-06"/>
    <status value="final"/>
    <subject>
      <reference value="Patient/629528"/>
    </subject>
    <encounter>
      <reference value="Encounter/31"/>
    </encounter>
    
  </Observation>
  
  </resource>
  <request>
    <method value="POST"/>
    <url value="Observation/31-bmi"/>
  </request>
</entry>
<entry>
  <resource>
    
    
  <Observation>
  <id value="31-oxygensaturation"/>
    <text>
      <status value="generated"/>
      <div xmlns="http://www.w3.org/1999/xhtml">1998-08-06: oxygen_saturation = 99.0 %{HemoglobinSaturation}</div>
    </text>
    <code>
      <coding>
        <system value="http://loinc.org"/>
        <code value="2710-2"/>
        <display value="oxygen_saturation"/>
      </coding>
      <text value="oxygen_saturation"/>
    </code>
    <valueQuantity>
      <value value="99.0"/>
      <unit value="%{HemoglobinSaturation}"/>
      <system value="http://unitsofmeasure.org" />
      <code value="%{HemoglobinSaturation}"/>
    </valueQuantity>
    
    <effectiveDateTime value="1998-08-06"/>
    <status value="final"/>
    <subject>
      <reference value="Patient/629528"/>
    </subject>
    <encounter>
      <reference value="Encounter/31"/>
    </encounter>
    
  </Observation>
  
  </resource>
  <request>
    <method value="POST"/>
    <url value="Observation/31-oxygensaturation"/>
  </request>
</entry>
<entry>
  <resource>
    
    
  <Observation>
  <id value="32-height"/>
    <text>
      <status value="generated"/>
      <div xmlns="http://www.w3.org/1999/xhtml">1998-12-02: height = 166.878 cm</div>
    </text>
    <code>
      <coding>
        <system value="http://loinc.org"/>
        <code value="8302-2"/>
        <display value="height"/>
      </coding>
      <text value="height"/>
    </code>
    <valueQuantity>
      <value value="166.878"/>
      <unit value="cm"/>
      <system value="http://unitsofmeasure.org" />
      <code value="cm"/>
    </valueQuantity>
    
    <effectiveDateTime value="1998-12-02"/>
    <status value="final"/>
    <subject>
      <reference value="Patient/629528"/>
    </subject>
    <encounter>
      <reference value="Encounter/32"/>
    </encounter>
    
  </Observation>
  
  </resource>
  <request>
    <method value="POST"/>
    <url value="Observation/32-height"/>
  </request>
</entry>
<entry>
  <resource>
    
    
  <Observation>
  <id value="32-heartrate"/>
    <text>
      <status value="generated"/>
      <div xmlns="http://www.w3.org/1999/xhtml">1998-12-02: heart_rate = 71.0 {beats}/min</div>
    </text>
    <code>
      <coding>
        <system value="http://loinc.org"/>
        <code value="8867-4"/>
        <display value="heart_rate"/>
      </coding>
      <text value="heart_rate"/>
    </code>
    <valueQuantity>
      <value value="71.0"/>
      <unit value="{beats}/min"/>
      <system value="http://unitsofmeasure.org" />
      <code value="{beats}/min"/>
    </valueQuantity>
    
    <effectiveDateTime value="1998-12-02"/>
    <status value="final"/>
    <subject>
      <reference value="Patient/629528"/>
    </subject>
    <encounter>
      <reference value="Encounter/32"/>
    </encounter>
    
  </Observation>
  
  </resource>
  <request>
    <method value="POST"/>
    <url value="Observation/32-heartrate"/>
  </request>
</entry>
<entry>
  <resource>
    
    
  <Observation>
  <id value="32-respiratoryrate"/>
    <text>
      <status value="generated"/>
      <div xmlns="http://www.w3.org/1999/xhtml">1998-12-02: respiratory_rate = 18.0 {breaths}/min</div>
    </text>
    <code>
      <coding>
        <system value="http://loinc.org"/>
        <code value="9279-1"/>
        <display value="respiratory_rate"/>
      </coding>
      <text value="respiratory_rate"/>
    </code>
    <valueQuantity>
      <value value="18.0"/>
      <unit value="{breaths}/min"/>
      <system value="http://unitsofmeasure.org" />
      <code value="{breaths}/min"/>
    </valueQuantity>
    
    <effectiveDateTime value="1998-12-02"/>
    <status value="final"/>
    <subject>
      <reference value="Patient/629528"/>
    </subject>
    <encounter>
      <reference value="Encounter/32"/>
    </encounter>
    
  </Observation>
  
  </resource>
  <request>
    <method value="POST"/>
    <url value="Observation/32-respiratoryrate"/>
  </request>
</entry>
<entry>
  <resource>
    
    
  <Observation>
  <id value="32-temperature"/>
    <text>
      <status value="generated"/>
      <div xmlns="http://www.w3.org/1999/xhtml">1998-12-02: temperature = 36.55556 Cel</div>
    </text>
    <code>
      <coding>
        <system value="http://loinc.org"/>
        <code value="8310-5"/>
        <display value="temperature"/>
      </coding>
      <text value="temperature"/>
    </code>
    <valueQuantity>
      <value value="36.55556"/>
      <unit value="Cel"/>
      <system value="http://unitsofmeasure.org" />
      <code value="Cel"/>
    </valueQuantity>
    
    <effectiveDateTime value="1998-12-02"/>
    <status value="final"/>
    <subject>
      <reference value="Patient/629528"/>
    </subject>
    <encounter>
      <reference value="Encounter/32"/>
    </encounter>
    
  </Observation>
  
  </resource>
  <request>
    <method value="POST"/>
    <url value="Observation/32-temperature"/>
  </request>
</entry>
<entry>
  <resource>
    
    
  <Observation>
  <id value="32-weight"/>
    <text>
      <status value="generated"/>
      <div xmlns="http://www.w3.org/1999/xhtml">1998-12-02: weight = 32.97617 kg</div>
    </text>
    <code>
      <coding>
        <system value="http://loinc.org"/>
        <code value="3141-9"/>
        <display value="weight"/>
      </coding>
      <text value="weight"/>
    </code>
    <valueQuantity>
      <value value="32.97617"/>
      <unit value="kg"/>
      <system value="http://unitsofmeasure.org" />
      <code value="kg"/>
    </valueQuantity>
    
    <effectiveDateTime value="1998-12-02"/>
    <status value="final"/>
    <subject>
      <reference value="Patient/629528"/>
    </subject>
    <encounter>
      <reference value="Encounter/32"/>
    </encounter>
    
  </Observation>
  
  </resource>
  <request>
    <method value="POST"/>
    <url value="Observation/32-weight"/>
  </request>
</entry>
<entry>
  <resource>
    
    
  <Observation>
  <id value="32-bmi"/>
    <text>
      <status value="generated"/>
      <div xmlns="http://www.w3.org/1999/xhtml">1998-12-02: bmi = 11.8 kg/m2</div>
    </text>
    <code>
      <coding>
        <system value="http://loinc.org"/>
        <code value="39156-5"/>
        <display value="bmi"/>
      </coding>
      <text value="bmi"/>
    </code>
    <valueQuantity>
      <value value="11.8"/>
      <unit value="kg/m2"/>
      <system value="http://unitsofmeasure.org" />
      <code value="kg/m2"/>
    </valueQuantity>
    
    <effectiveDateTime value="1998-12-02"/>
    <status value="final"/>
    <subject>
      <reference value="Patient/629528"/>
    </subject>
    <encounter>
      <reference value="Encounter/32"/>
    </encounter>
    
  </Observation>
  
  </resource>
  <request>
    <method value="POST"/>
    <url value="Observation/32-bmi"/>
  </request>
</entry>
<entry>
  <resource>
    
    
  <Observation>
  <id value="32-oxygensaturation"/>
    <text>
      <status value="generated"/>
      <div xmlns="http://www.w3.org/1999/xhtml">1998-12-02: oxygen_saturation = 99.0 %{HemoglobinSaturation}</div>
    </text>
    <code>
      <coding>
        <system value="http://loinc.org"/>
        <code value="2710-2"/>
        <display value="oxygen_saturation"/>
      </coding>
      <text value="oxygen_saturation"/>
    </code>
    <valueQuantity>
      <value value="99.0"/>
      <unit value="%{HemoglobinSaturation}"/>
      <system value="http://unitsofmeasure.org" />
      <code value="%{HemoglobinSaturation}"/>
    </valueQuantity>
    
    <effectiveDateTime value="1998-12-02"/>
    <status value="final"/>
    <subject>
      <reference value="Patient/629528"/>
    </subject>
    <encounter>
      <reference value="Encounter/32"/>
    </encounter>
    
  </Observation>
  
  </resource>
  <request>
    <method value="POST"/>
    <url value="Observation/32-oxygensaturation"/>
  </request>
</entry>
<entry>
  <resource>
    
    
  <Observation>
  <id value="33-height"/>
    <text>
      <status value="generated"/>
      <div xmlns="http://www.w3.org/1999/xhtml">1998-12-08: height = 166.878 cm</div>
    </text>
    <code>
      <coding>
        <system value="http://loinc.org"/>
        <code value="8302-2"/>
        <display value="height"/>
      </coding>
      <text value="height"/>
    </code>
    <valueQuantity>
      <value value="166.878"/>
      <unit value="cm"/>
      <system value="http://unitsofmeasure.org" />
      <code value="cm"/>
    </valueQuantity>
    
    <effectiveDateTime value="1998-12-08"/>
    <status value="final"/>
    <subject>
      <reference value="Patient/629528"/>
    </subject>
    <encounter>
      <reference value="Encounter/33"/>
    </encounter>
    
  </Observation>
  
  </resource>
  <request>
    <method value="POST"/>
    <url value="Observation/33-height"/>
  </request>
</entry>
<entry>
  <resource>
    
    
  <Observation>
  <id value="33-heartrate"/>
    <text>
      <status value="generated"/>
      <div xmlns="http://www.w3.org/1999/xhtml">1998-12-08: heart_rate = 74.0 {beats}/min</div>
    </text>
    <code>
      <coding>
        <system value="http://loinc.org"/>
        <code value="8867-4"/>
        <display value="heart_rate"/>
      </coding>
      <text value="heart_rate"/>
    </code>
    <valueQuantity>
      <value value="74.0"/>
      <unit value="{beats}/min"/>
      <system value="http://unitsofmeasure.org" />
      <code value="{beats}/min"/>
    </valueQuantity>
    
    <effectiveDateTime value="1998-12-08"/>
    <status value="final"/>
    <subject>
      <reference value="Patient/629528"/>
    </subject>
    <encounter>
      <reference value="Encounter/33"/>
    </encounter>
    
  </Observation>
  
  </resource>
  <request>
    <method value="POST"/>
    <url value="Observation/33-heartrate"/>
  </request>
</entry>
<entry>
  <resource>
    
    
  <Observation>
  <id value="33-respiratoryrate"/>
    <text>
      <status value="generated"/>
      <div xmlns="http://www.w3.org/1999/xhtml">1998-12-08: respiratory_rate = 18.0 {breaths}/min</div>
    </text>
    <code>
      <coding>
        <system value="http://loinc.org"/>
        <code value="9279-1"/>
        <display value="respiratory_rate"/>
      </coding>
      <text value="respiratory_rate"/>
    </code>
    <valueQuantity>
      <value value="18.0"/>
      <unit value="{breaths}/min"/>
      <system value="http://unitsofmeasure.org" />
      <code value="{breaths}/min"/>
    </valueQuantity>
    
    <effectiveDateTime value="1998-12-08"/>
    <status value="final"/>
    <subject>
      <reference value="Patient/629528"/>
    </subject>
    <encounter>
      <reference value="Encounter/33"/>
    </encounter>
    
  </Observation>
  
  </resource>
  <request>
    <method value="POST"/>
    <url value="Observation/33-respiratoryrate"/>
  </request>
</entry>
<entry>
  <resource>
    
    
  <Observation>
  <id value="33-temperature"/>
    <text>
      <status value="generated"/>
      <div xmlns="http://www.w3.org/1999/xhtml">1998-12-08: temperature = 36.55556 Cel</div>
    </text>
    <code>
      <coding>
        <system value="http://loinc.org"/>
        <code value="8310-5"/>
        <display value="temperature"/>
      </coding>
      <text value="temperature"/>
    </code>
    <valueQuantity>
      <value value="36.55556"/>
      <unit value="Cel"/>
      <system value="http://unitsofmeasure.org" />
      <code value="Cel"/>
    </valueQuantity>
    
    <effectiveDateTime value="1998-12-08"/>
    <status value="final"/>
    <subject>
      <reference value="Patient/629528"/>
    </subject>
    <encounter>
      <reference value="Encounter/33"/>
    </encounter>
    
  </Observation>
  
  </resource>
  <request>
    <method value="POST"/>
    <url value="Observation/33-temperature"/>
  </request>
</entry>
<entry>
  <resource>
    
    
  <Observation>
  <id value="33-weight"/>
    <text>
      <status value="generated"/>
      <div xmlns="http://www.w3.org/1999/xhtml">1998-12-08: weight = 39.14502 kg</div>
    </text>
    <code>
      <coding>
        <system value="http://loinc.org"/>
        <code value="3141-9"/>
        <display value="weight"/>
      </coding>
      <text value="weight"/>
    </code>
    <valueQuantity>
      <value value="39.14502"/>
      <unit value="kg"/>
      <system value="http://unitsofmeasure.org" />
      <code value="kg"/>
    </valueQuantity>
    
    <effectiveDateTime value="1998-12-08"/>
    <status value="final"/>
    <subject>
      <reference value="Patient/629528"/>
    </subject>
    <encounter>
      <reference value="Encounter/33"/>
    </encounter>
    
  </Observation>
  
  </resource>
  <request>
    <method value="POST"/>
    <url value="Observation/33-weight"/>
  </request>
</entry>
<entry>
  <resource>
    
    
  <Observation>
  <id value="33-bmi"/>
    <text>
      <status value="generated"/>
      <div xmlns="http://www.w3.org/1999/xhtml">1998-12-08: bmi = 14.1 kg/m2</div>
    </text>
    <code>
      <coding>
        <system value="http://loinc.org"/>
        <code value="39156-5"/>
        <display value="bmi"/>
      </coding>
      <text value="bmi"/>
    </code>
    <valueQuantity>
      <value value="14.1"/>
      <unit value="kg/m2"/>
      <system value="http://unitsofmeasure.org" />
      <code value="kg/m2"/>
    </valueQuantity>
    
    <effectiveDateTime value="1998-12-08"/>
    <status value="final"/>
    <subject>
      <reference value="Patient/629528"/>
    </subject>
    <encounter>
      <reference value="Encounter/33"/>
    </encounter>
    
  </Observation>
  
  </resource>
  <request>
    <method value="POST"/>
    <url value="Observation/33-bmi"/>
  </request>
</entry>
<entry>
  <resource>
    
    
  <Observation>
  <id value="33-oxygensaturation"/>
    <text>
      <status value="generated"/>
      <div xmlns="http://www.w3.org/1999/xhtml">1998-12-08: oxygen_saturation = 99.0 %{HemoglobinSaturation}</div>
    </text>
    <code>
      <coding>
        <system value="http://loinc.org"/>
        <code value="2710-2"/>
        <display value="oxygen_saturation"/>
      </coding>
      <text value="oxygen_saturation"/>
    </code>
    <valueQuantity>
      <value value="99.0"/>
      <unit value="%{HemoglobinSaturation}"/>
      <system value="http://unitsofmeasure.org" />
      <code value="%{HemoglobinSaturation}"/>
    </valueQuantity>
    
    <effectiveDateTime value="1998-12-08"/>
    <status value="final"/>
    <subject>
      <reference value="Patient/629528"/>
    </subject>
    <encounter>
      <reference value="Encounter/33"/>
    </encounter>
    
  </Observation>
  
  </resource>
  <request>
    <method value="POST"/>
    <url value="Observation/33-oxygensaturation"/>
  </request>
</entry>
<entry>
  <resource>
    
    
  <Observation>
  <id value="34-height"/>
    <text>
      <status value="generated"/>
      <div xmlns="http://www.w3.org/1999/xhtml">1998-12-09: height = 166.624 cm</div>
    </text>
    <code>
      <coding>
        <system value="http://loinc.org"/>
        <code value="8302-2"/>
        <display value="height"/>
      </coding>
      <text value="height"/>
    </code>
    <valueQuantity>
      <value value="166.624"/>
      <unit value="cm"/>
      <system value="http://unitsofmeasure.org" />
      <code value="cm"/>
    </valueQuantity>
    
    <effectiveDateTime value="1998-12-09"/>
    <status value="final"/>
    <subject>
      <reference value="Patient/629528"/>
    </subject>
    <encounter>
      <reference value="Encounter/34"/>
    </encounter>
    
  </Observation>
  
  </resource>
  <request>
    <method value="POST"/>
    <url value="Observation/34-height"/>
  </request>
</entry>
<entry>
  <resource>
    
    
  <Observation>
  <id value="34-heartrate"/>
    <text>
      <status value="generated"/>
      <div xmlns="http://www.w3.org/1999/xhtml">1998-12-09: heart_rate = 75.0 {beats}/min</div>
    </text>
    <code>
      <coding>
        <system value="http://loinc.org"/>
        <code value="8867-4"/>
        <display value="heart_rate"/>
      </coding>
      <text value="heart_rate"/>
    </code>
    <valueQuantity>
      <value value="75.0"/>
      <unit value="{beats}/min"/>
      <system value="http://unitsofmeasure.org" />
      <code value="{beats}/min"/>
    </valueQuantity>
    
    <effectiveDateTime value="1998-12-09"/>
    <status value="final"/>
    <subject>
      <reference value="Patient/629528"/>
    </subject>
    <encounter>
      <reference value="Encounter/34"/>
    </encounter>
    
  </Observation>
  
  </resource>
  <request>
    <method value="POST"/>
    <url value="Observation/34-heartrate"/>
  </request>
</entry>
<entry>
  <resource>
    
    
  <Observation>
  <id value="34-respiratoryrate"/>
    <text>
      <status value="generated"/>
      <div xmlns="http://www.w3.org/1999/xhtml">1998-12-09: respiratory_rate = 18.0 {breaths}/min</div>
    </text>
    <code>
      <coding>
        <system value="http://loinc.org"/>
        <code value="9279-1"/>
        <display value="respiratory_rate"/>
      </coding>
      <text value="respiratory_rate"/>
    </code>
    <valueQuantity>
      <value value="18.0"/>
      <unit value="{breaths}/min"/>
      <system value="http://unitsofmeasure.org" />
      <code value="{breaths}/min"/>
    </valueQuantity>
    
    <effectiveDateTime value="1998-12-09"/>
    <status value="final"/>
    <subject>
      <reference value="Patient/629528"/>
    </subject>
    <encounter>
      <reference value="Encounter/34"/>
    </encounter>
    
  </Observation>
  
  </resource>
  <request>
    <method value="POST"/>
    <url value="Observation/34-respiratoryrate"/>
  </request>
</entry>
<entry>
  <resource>
    
    
  <Observation>
  <id value="34-temperature"/>
    <text>
      <status value="generated"/>
      <div xmlns="http://www.w3.org/1999/xhtml">1998-12-09: temperature = 36.55556 Cel</div>
    </text>
    <code>
      <coding>
        <system value="http://loinc.org"/>
        <code value="8310-5"/>
        <display value="temperature"/>
      </coding>
      <text value="temperature"/>
    </code>
    <valueQuantity>
      <value value="36.55556"/>
      <unit value="Cel"/>
      <system value="http://unitsofmeasure.org" />
      <code value="Cel"/>
    </valueQuantity>
    
    <effectiveDateTime value="1998-12-09"/>
    <status value="final"/>
    <subject>
      <reference value="Patient/629528"/>
    </subject>
    <encounter>
      <reference value="Encounter/34"/>
    </encounter>
    
  </Observation>
  
  </resource>
  <request>
    <method value="POST"/>
    <url value="Observation/34-temperature"/>
  </request>
</entry>
<entry>
  <resource>
    
    
  <Observation>
  <id value="34-weight"/>
    <text>
      <status value="generated"/>
      <div xmlns="http://www.w3.org/1999/xhtml">1998-12-09: weight = 39.19038 kg</div>
    </text>
    <code>
      <coding>
        <system value="http://loinc.org"/>
        <code value="3141-9"/>
        <display value="weight"/>
      </coding>
      <text value="weight"/>
    </code>
    <valueQuantity>
      <value value="39.19038"/>
      <unit value="kg"/>
      <system value="http://unitsofmeasure.org" />
      <code value="kg"/>
    </valueQuantity>
    
    <effectiveDateTime value="1998-12-09"/>
    <status value="final"/>
    <subject>
      <reference value="Patient/629528"/>
    </subject>
    <encounter>
      <reference value="Encounter/34"/>
    </encounter>
    
  </Observation>
  
  </resource>
  <request>
    <method value="POST"/>
    <url value="Observation/34-weight"/>
  </request>
</entry>
<entry>
  <resource>
    
    
  <Observation>
  <id value="34-bmi"/>
    <text>
      <status value="generated"/>
      <div xmlns="http://www.w3.org/1999/xhtml">1998-12-09: bmi = 14.1 kg/m2</div>
    </text>
    <code>
      <coding>
        <system value="http://loinc.org"/>
        <code value="39156-5"/>
        <display value="bmi"/>
      </coding>
      <text value="bmi"/>
    </code>
    <valueQuantity>
      <value value="14.1"/>
      <unit value="kg/m2"/>
      <system value="http://unitsofmeasure.org" />
      <code value="kg/m2"/>
    </valueQuantity>
    
    <effectiveDateTime value="1998-12-09"/>
    <status value="final"/>
    <subject>
      <reference value="Patient/629528"/>
    </subject>
    <encounter>
      <reference value="Encounter/34"/>
    </encounter>
    
  </Observation>
  
  </resource>
  <request>
    <method value="POST"/>
    <url value="Observation/34-bmi"/>
  </request>
</entry>
<entry>
  <resource>
    
    
  <Observation>
  <id value="34-oxygensaturation"/>
    <text>
      <status value="generated"/>
      <div xmlns="http://www.w3.org/1999/xhtml">1998-12-09: oxygen_saturation = 99.0 %{HemoglobinSaturation}</div>
    </text>
    <code>
      <coding>
        <system value="http://loinc.org"/>
        <code value="2710-2"/>
        <display value="oxygen_saturation"/>
      </coding>
      <text value="oxygen_saturation"/>
    </code>
    <valueQuantity>
      <value value="99.0"/>
      <unit value="%{HemoglobinSaturation}"/>
      <system value="http://unitsofmeasure.org" />
      <code value="%{HemoglobinSaturation}"/>
    </valueQuantity>
    
    <effectiveDateTime value="1998-12-09"/>
    <status value="final"/>
    <subject>
      <reference value="Patient/629528"/>
    </subject>
    <encounter>
      <reference value="Encounter/34"/>
    </encounter>
    
  </Observation>
  
  </resource>
  <request>
    <method value="POST"/>
    <url value="Observation/34-oxygensaturation"/>
  </request>
</entry>
<entry>
  <resource>
    
    
  <Observation>
  <id value="35-height"/>
    <text>
      <status value="generated"/>
      <div xmlns="http://www.w3.org/1999/xhtml">2000-01-11: height = 167.132 cm</div>
    </text>
    <code>
      <coding>
        <system value="http://loinc.org"/>
        <code value="8302-2"/>
        <display value="height"/>
      </coding>
      <text value="height"/>
    </code>
    <valueQuantity>
      <value value="167.132"/>
      <unit value="cm"/>
      <system value="http://unitsofmeasure.org" />
      <code value="cm"/>
    </valueQuantity>
    
    <effectiveDateTime value="2000-01-11"/>
    <status value="final"/>
    <subject>
      <reference value="Patient/629528"/>
    </subject>
    <encounter>
      <reference value="Encounter/35"/>
    </encounter>
    
  </Observation>
  
  </resource>
  <request>
    <method value="POST"/>
    <url value="Observation/35-height"/>
  </request>
</entry>
<entry>
  <resource>
    
    
  <Observation>
  <id value="35-heartrate"/>
    <text>
      <status value="generated"/>
      <div xmlns="http://www.w3.org/1999/xhtml">2000-01-11: heart_rate = 70.0 {beats}/min</div>
    </text>
    <code>
      <coding>
        <system value="http://loinc.org"/>
        <code value="8867-4"/>
        <display value="heart_rate"/>
      </coding>
      <text value="heart_rate"/>
    </code>
    <valueQuantity>
      <value value="70.0"/>
      <unit value="{beats}/min"/>
      <system value="http://unitsofmeasure.org" />
      <code value="{beats}/min"/>
    </valueQuantity>
    
    <effectiveDateTime value="2000-01-11"/>
    <status value="final"/>
    <subject>
      <reference value="Patient/629528"/>
    </subject>
    <encounter>
      <reference value="Encounter/35"/>
    </encounter>
    
  </Observation>
  
  </resource>
  <request>
    <method value="POST"/>
    <url value="Observation/35-heartrate"/>
  </request>
</entry>
<entry>
  <resource>
    
    
  <Observation>
  <id value="35-respiratoryrate"/>
    <text>
      <status value="generated"/>
      <div xmlns="http://www.w3.org/1999/xhtml">2000-01-11: respiratory_rate = 17.0 {breaths}/min</div>
    </text>
    <code>
      <coding>
        <system value="http://loinc.org"/>
        <code value="9279-1"/>
        <display value="respiratory_rate"/>
      </coding>
      <text value="respiratory_rate"/>
    </code>
    <valueQuantity>
      <value value="17.0"/>
      <unit value="{breaths}/min"/>
      <system value="http://unitsofmeasure.org" />
      <code value="{breaths}/min"/>
    </valueQuantity>
    
    <effectiveDateTime value="2000-01-11"/>
    <status value="final"/>
    <subject>
      <reference value="Patient/629528"/>
    </subject>
    <encounter>
      <reference value="Encounter/35"/>
    </encounter>
    
  </Observation>
  
  </resource>
  <request>
    <method value="POST"/>
    <url value="Observation/35-respiratoryrate"/>
  </request>
</entry>
<entry>
  <resource>
    
    
  <Observation>
  <id value="35-temperature"/>
    <text>
      <status value="generated"/>
      <div xmlns="http://www.w3.org/1999/xhtml">2000-01-11: temperature = 36.61111 Cel</div>
    </text>
    <code>
      <coding>
        <system value="http://loinc.org"/>
        <code value="8310-5"/>
        <display value="temperature"/>
      </coding>
      <text value="temperature"/>
    </code>
    <valueQuantity>
      <value value="36.61111"/>
      <unit value="Cel"/>
      <system value="http://unitsofmeasure.org" />
      <code value="Cel"/>
    </valueQuantity>
    
    <effectiveDateTime value="2000-01-11"/>
    <status value="final"/>
    <subject>
      <reference value="Patient/629528"/>
    </subject>
    <encounter>
      <reference value="Encounter/35"/>
    </encounter>
    
  </Observation>
  
  </resource>
  <request>
    <method value="POST"/>
    <url value="Observation/35-temperature"/>
  </request>
</entry>
<entry>
  <resource>
    
    
  <Observation>
  <id value="35-weight"/>
    <text>
      <status value="generated"/>
      <div xmlns="http://www.w3.org/1999/xhtml">2000-01-11: weight = 35.01733 kg</div>
    </text>
    <code>
      <coding>
        <system value="http://loinc.org"/>
        <code value="3141-9"/>
        <display value="weight"/>
      </coding>
      <text value="weight"/>
    </code>
    <valueQuantity>
      <value value="35.01733"/>
      <unit value="kg"/>
      <system value="http://unitsofmeasure.org" />
      <code value="kg"/>
    </valueQuantity>
    
    <effectiveDateTime value="2000-01-11"/>
    <status value="final"/>
    <subject>
      <reference value="Patient/629528"/>
    </subject>
    <encounter>
      <reference value="Encounter/35"/>
    </encounter>
    
  </Observation>
  
  </resource>
  <request>
    <method value="POST"/>
    <url value="Observation/35-weight"/>
  </request>
</entry>
<entry>
  <resource>
    
    
  <Observation>
  <id value="35-bmi"/>
    <text>
      <status value="generated"/>
      <div xmlns="http://www.w3.org/1999/xhtml">2000-01-11: bmi = 12.5 kg/m2</div>
    </text>
    <code>
      <coding>
        <system value="http://loinc.org"/>
        <code value="39156-5"/>
        <display value="bmi"/>
      </coding>
      <text value="bmi"/>
    </code>
    <valueQuantity>
      <value value="12.5"/>
      <unit value="kg/m2"/>
      <system value="http://unitsofmeasure.org" />
      <code value="kg/m2"/>
    </valueQuantity>
    
    <effectiveDateTime value="2000-01-11"/>
    <status value="final"/>
    <subject>
      <reference value="Patient/629528"/>
    </subject>
    <encounter>
      <reference value="Encounter/35"/>
    </encounter>
    
  </Observation>
  
  </resource>
  <request>
    <method value="POST"/>
    <url value="Observation/35-bmi"/>
  </request>
</entry>
<entry>
  <resource>
    
    
  <Observation>
  <id value="35-oxygensaturation"/>
    <text>
      <status value="generated"/>
      <div xmlns="http://www.w3.org/1999/xhtml">2000-01-11: oxygen_saturation = 94.0 %{HemoglobinSaturation}</div>
    </text>
    <code>
      <coding>
        <system value="http://loinc.org"/>
        <code value="2710-2"/>
        <display value="oxygen_saturation"/>
      </coding>
      <text value="oxygen_saturation"/>
    </code>
    <valueQuantity>
      <value value="94.0"/>
      <unit value="%{HemoglobinSaturation}"/>
      <system value="http://unitsofmeasure.org" />
      <code value="%{HemoglobinSaturation}"/>
    </valueQuantity>
    
    <effectiveDateTime value="2000-01-11"/>
    <status value="final"/>
    <subject>
      <reference value="Patient/629528"/>
    </subject>
    <encounter>
      <reference value="Encounter/35"/>
    </encounter>
    
  </Observation>
  
  </resource>
  <request>
    <method value="POST"/>
    <url value="Observation/35-oxygensaturation"/>
  </request>
</entry>
<entry>
  <resource>
    
    
  <Observation>
  <id value="36-height"/>
    <text>
      <status value="generated"/>
      <div xmlns="http://www.w3.org/1999/xhtml">2001-01-08: height = 167.64 cm</div>
    </text>
    <code>
      <coding>
        <system value="http://loinc.org"/>
        <code value="8302-2"/>
        <display value="height"/>
      </coding>
      <text value="height"/>
    </code>
    <valueQuantity>
      <value value="167.64"/>
      <unit value="cm"/>
      <system value="http://unitsofmeasure.org" />
      <code value="cm"/>
    </valueQuantity>
    
    <effectiveDateTime value="2001-01-08"/>
    <status value="final"/>
    <subject>
      <reference value="Patient/629528"/>
    </subject>
    <encounter>
      <reference value="Encounter/36"/>
    </encounter>
    
  </Observation>
  
  </resource>
  <request>
    <method value="POST"/>
    <url value="Observation/36-height"/>
  </request>
</entry>
<entry>
  <resource>
    
    
  <Observation>
  <id value="36-heartrate"/>
    <text>
      <status value="generated"/>
      <div xmlns="http://www.w3.org/1999/xhtml">2001-01-08: heart_rate = 73.0 {beats}/min</div>
    </text>
    <code>
      <coding>
        <system value="http://loinc.org"/>
        <code value="8867-4"/>
        <display value="heart_rate"/>
      </coding>
      <text value="heart_rate"/>
    </code>
    <valueQuantity>
      <value value="73.0"/>
      <unit value="{beats}/min"/>
      <system value="http://unitsofmeasure.org" />
      <code value="{beats}/min"/>
    </valueQuantity>
    
    <effectiveDateTime value="2001-01-08"/>
    <status value="final"/>
    <subject>
      <reference value="Patient/629528"/>
    </subject>
    <encounter>
      <reference value="Encounter/36"/>
    </encounter>
    
  </Observation>
  
  </resource>
  <request>
    <method value="POST"/>
    <url value="Observation/36-heartrate"/>
  </request>
</entry>
<entry>
  <resource>
    
    
  <Observation>
  <id value="36-respiratoryrate"/>
    <text>
      <status value="generated"/>
      <div xmlns="http://www.w3.org/1999/xhtml">2001-01-08: respiratory_rate = 16.0 {breaths}/min</div>
    </text>
    <code>
      <coding>
        <system value="http://loinc.org"/>
        <code value="9279-1"/>
        <display value="respiratory_rate"/>
      </coding>
      <text value="respiratory_rate"/>
    </code>
    <valueQuantity>
      <value value="16.0"/>
      <unit value="{breaths}/min"/>
      <system value="http://unitsofmeasure.org" />
      <code value="{breaths}/min"/>
    </valueQuantity>
    
    <effectiveDateTime value="2001-01-08"/>
    <status value="final"/>
    <subject>
      <reference value="Patient/629528"/>
    </subject>
    <encounter>
      <reference value="Encounter/36"/>
    </encounter>
    
  </Observation>
  
  </resource>
  <request>
    <method value="POST"/>
    <url value="Observation/36-respiratoryrate"/>
  </request>
</entry>
<entry>
  <resource>
    
    
  <Observation>
  <id value="36-temperature"/>
    <text>
      <status value="generated"/>
      <div xmlns="http://www.w3.org/1999/xhtml">2001-01-08: temperature = 36.61111 Cel</div>
    </text>
    <code>
      <coding>
        <system value="http://loinc.org"/>
        <code value="8310-5"/>
        <display value="temperature"/>
      </coding>
      <text value="temperature"/>
    </code>
    <valueQuantity>
      <value value="36.61111"/>
      <unit value="Cel"/>
      <system value="http://unitsofmeasure.org" />
      <code value="Cel"/>
    </valueQuantity>
    
    <effectiveDateTime value="2001-01-08"/>
    <status value="final"/>
    <subject>
      <reference value="Patient/629528"/>
    </subject>
    <encounter>
      <reference value="Encounter/36"/>
    </encounter>
    
  </Observation>
  
  </resource>
  <request>
    <method value="POST"/>
    <url value="Observation/36-temperature"/>
  </request>
</entry>
<entry>
  <resource>
    
    
  <Observation>
  <id value="36-weight"/>
    <text>
      <status value="generated"/>
      <div xmlns="http://www.w3.org/1999/xhtml">2001-01-08: weight = 34.47302 kg</div>
    </text>
    <code>
      <coding>
        <system value="http://loinc.org"/>
        <code value="3141-9"/>
        <display value="weight"/>
      </coding>
      <text value="weight"/>
    </code>
    <valueQuantity>
      <value value="34.47302"/>
      <unit value="kg"/>
      <system value="http://unitsofmeasure.org" />
      <code value="kg"/>
    </valueQuantity>
    
    <effectiveDateTime value="2001-01-08"/>
    <status value="final"/>
    <subject>
      <reference value="Patient/629528"/>
    </subject>
    <encounter>
      <reference value="Encounter/36"/>
    </encounter>
    
  </Observation>
  
  </resource>
  <request>
    <method value="POST"/>
    <url value="Observation/36-weight"/>
  </request>
</entry>
<entry>
  <resource>
    
    
  <Observation>
  <id value="36-bmi"/>
    <text>
      <status value="generated"/>
      <div xmlns="http://www.w3.org/1999/xhtml">2001-01-08: bmi = 12.3 kg/m2</div>
    </text>
    <code>
      <coding>
        <system value="http://loinc.org"/>
        <code value="39156-5"/>
        <display value="bmi"/>
      </coding>
      <text value="bmi"/>
    </code>
    <valueQuantity>
      <value value="12.3"/>
      <unit value="kg/m2"/>
      <system value="http://unitsofmeasure.org" />
      <code value="kg/m2"/>
    </valueQuantity>
    
    <effectiveDateTime value="2001-01-08"/>
    <status value="final"/>
    <subject>
      <reference value="Patient/629528"/>
    </subject>
    <encounter>
      <reference value="Encounter/36"/>
    </encounter>
    
  </Observation>
  
  </resource>
  <request>
    <method value="POST"/>
    <url value="Observation/36-bmi"/>
  </request>
</entry>
<entry>
  <resource>
    
    
  <Observation>
  <id value="36-oxygensaturation"/>
    <text>
      <status value="generated"/>
      <div xmlns="http://www.w3.org/1999/xhtml">2001-01-08: oxygen_saturation = 95.0 %{HemoglobinSaturation}</div>
    </text>
    <code>
      <coding>
        <system value="http://loinc.org"/>
        <code value="2710-2"/>
        <display value="oxygen_saturation"/>
      </coding>
      <text value="oxygen_saturation"/>
    </code>
    <valueQuantity>
      <value value="95.0"/>
      <unit value="%{HemoglobinSaturation}"/>
      <system value="http://unitsofmeasure.org" />
      <code value="%{HemoglobinSaturation}"/>
    </valueQuantity>
    
    <effectiveDateTime value="2001-01-08"/>
    <status value="final"/>
    <subject>
      <reference value="Patient/629528"/>
    </subject>
    <encounter>
      <reference value="Encounter/36"/>
    </encounter>
    
  </Observation>
  
  </resource>
  <request>
    <method value="POST"/>
    <url value="Observation/36-oxygensaturation"/>
  </request>
</entry>
<entry>
  <resource>
    
    
  <Observation>
  <id value="37-height"/>
    <text>
      <status value="generated"/>
      <div xmlns="http://www.w3.org/1999/xhtml">2004-05-10: height = 168.656 cm</div>
    </text>
    <code>
      <coding>
        <system value="http://loinc.org"/>
        <code value="8302-2"/>
        <display value="height"/>
      </coding>
      <text value="height"/>
    </code>
    <valueQuantity>
      <value value="168.656"/>
      <unit value="cm"/>
      <system value="http://unitsofmeasure.org" />
      <code value="cm"/>
    </valueQuantity>
    
    <effectiveDateTime value="2004-05-10"/>
    <status value="final"/>
    <subject>
      <reference value="Patient/629528"/>
    </subject>
    <encounter>
      <reference value="Encounter/37"/>
    </encounter>
    
  </Observation>
  
  </resource>
  <request>
    <method value="POST"/>
    <url value="Observation/37-height"/>
  </request>
</entry>
<entry>
  <resource>
    
    
  <Observation>
  <id value="37-heartrate"/>
    <text>
      <status value="generated"/>
      <div xmlns="http://www.w3.org/1999/xhtml">2004-05-10: heart_rate = 79.0 {beats}/min</div>
    </text>
    <code>
      <coding>
        <system value="http://loinc.org"/>
        <code value="8867-4"/>
        <display value="heart_rate"/>
      </coding>
      <text value="heart_rate"/>
    </code>
    <valueQuantity>
      <value value="79.0"/>
      <unit value="{beats}/min"/>
      <system value="http://unitsofmeasure.org" />
      <code value="{beats}/min"/>
    </valueQuantity>
    
    <effectiveDateTime value="2004-05-10"/>
    <status value="final"/>
    <subject>
      <reference value="Patient/629528"/>
    </subject>
    <encounter>
      <reference value="Encounter/37"/>
    </encounter>
    
  </Observation>
  
  </resource>
  <request>
    <method value="POST"/>
    <url value="Observation/37-heartrate"/>
  </request>
</entry>
<entry>
  <resource>
    
    
  <Observation>
  <id value="37-respiratoryrate"/>
    <text>
      <status value="generated"/>
      <div xmlns="http://www.w3.org/1999/xhtml">2004-05-10: respiratory_rate = 15.0 {breaths}/min</div>
    </text>
    <code>
      <coding>
        <system value="http://loinc.org"/>
        <code value="9279-1"/>
        <display value="respiratory_rate"/>
      </coding>
      <text value="respiratory_rate"/>
    </code>
    <valueQuantity>
      <value value="15.0"/>
      <unit value="{breaths}/min"/>
      <system value="http://unitsofmeasure.org" />
      <code value="{breaths}/min"/>
    </valueQuantity>
    
    <effectiveDateTime value="2004-05-10"/>
    <status value="final"/>
    <subject>
      <reference value="Patient/629528"/>
    </subject>
    <encounter>
      <reference value="Encounter/37"/>
    </encounter>
    
  </Observation>
  
  </resource>
  <request>
    <method value="POST"/>
    <url value="Observation/37-respiratoryrate"/>
  </request>
</entry>
<entry>
  <resource>
    
    
  <Observation>
  <id value="37-temperature"/>
    <text>
      <status value="generated"/>
      <div xmlns="http://www.w3.org/1999/xhtml">2004-05-10: temperature = 36.66667 Cel</div>
    </text>
    <code>
      <coding>
        <system value="http://loinc.org"/>
        <code value="8310-5"/>
        <display value="temperature"/>
      </coding>
      <text value="temperature"/>
    </code>
    <valueQuantity>
      <value value="36.66667"/>
      <unit value="Cel"/>
      <system value="http://unitsofmeasure.org" />
      <code value="Cel"/>
    </valueQuantity>
    
    <effectiveDateTime value="2004-05-10"/>
    <status value="final"/>
    <subject>
      <reference value="Patient/629528"/>
    </subject>
    <encounter>
      <reference value="Encounter/37"/>
    </encounter>
    
  </Observation>
  
  </resource>
  <request>
    <method value="POST"/>
    <url value="Observation/37-temperature"/>
  </request>
</entry>
<entry>
  <resource>
    
    
  <Observation>
  <id value="37-weight"/>
    <text>
      <status value="generated"/>
      <div xmlns="http://www.w3.org/1999/xhtml">2004-05-10: weight = 42.86448 kg</div>
    </text>
    <code>
      <coding>
        <system value="http://loinc.org"/>
        <code value="3141-9"/>
        <display value="weight"/>
      </coding>
      <text value="weight"/>
    </code>
    <valueQuantity>
      <value value="42.86448"/>
      <unit value="kg"/>
      <system value="http://unitsofmeasure.org" />
      <code value="kg"/>
    </valueQuantity>
    
    <effectiveDateTime value="2004-05-10"/>
    <status value="final"/>
    <subject>
      <reference value="Patient/629528"/>
    </subject>
    <encounter>
      <reference value="Encounter/37"/>
    </encounter>
    
  </Observation>
  
  </resource>
  <request>
    <method value="POST"/>
    <url value="Observation/37-weight"/>
  </request>
</entry>
<entry>
  <resource>
    
    
  <Observation>
  <id value="37-bmi"/>
    <text>
      <status value="generated"/>
      <div xmlns="http://www.w3.org/1999/xhtml">2004-05-10: bmi = 15.1 kg/m2</div>
    </text>
    <code>
      <coding>
        <system value="http://loinc.org"/>
        <code value="39156-5"/>
        <display value="bmi"/>
      </coding>
      <text value="bmi"/>
    </code>
    <valueQuantity>
      <value value="15.1"/>
      <unit value="kg/m2"/>
      <system value="http://unitsofmeasure.org" />
      <code value="kg/m2"/>
    </valueQuantity>
    
    <effectiveDateTime value="2004-05-10"/>
    <status value="final"/>
    <subject>
      <reference value="Patient/629528"/>
    </subject>
    <encounter>
      <reference value="Encounter/37"/>
    </encounter>
    
  </Observation>
  
  </resource>
  <request>
    <method value="POST"/>
    <url value="Observation/37-bmi"/>
  </request>
</entry>
<entry>
  <resource>
    
    
  <Observation>
  <id value="37-oxygensaturation"/>
    <text>
      <status value="generated"/>
      <div xmlns="http://www.w3.org/1999/xhtml">2004-05-10: oxygen_saturation = 97.0 %{HemoglobinSaturation}</div>
    </text>
    <code>
      <coding>
        <system value="http://loinc.org"/>
        <code value="2710-2"/>
        <display value="oxygen_saturation"/>
      </coding>
      <text value="oxygen_saturation"/>
    </code>
    <valueQuantity>
      <value value="97.0"/>
      <unit value="%{HemoglobinSaturation}"/>
      <system value="http://unitsofmeasure.org" />
      <code value="%{HemoglobinSaturation}"/>
    </valueQuantity>
    
    <effectiveDateTime value="2004-05-10"/>
    <status value="final"/>
    <subject>
      <reference value="Patient/629528"/>
    </subject>
    <encounter>
      <reference value="Encounter/37"/>
    </encounter>
    
  </Observation>
  
  </resource>
  <request>
    <method value="POST"/>
    <url value="Observation/37-oxygensaturation"/>
  </request>
</entry>
<entry>
  <resource>
    
    
  <Observation>
  <id value="38-height"/>
    <text>
      <status value="generated"/>
      <div xmlns="http://www.w3.org/1999/xhtml">2004-05-11: height = 168.656 cm</div>
    </text>
    <code>
      <coding>
        <system value="http://loinc.org"/>
        <code value="8302-2"/>
        <display value="height"/>
      </coding>
      <text value="height"/>
    </code>
    <valueQuantity>
      <value value="168.656"/>
      <unit value="cm"/>
      <system value="http://unitsofmeasure.org" />
      <code value="cm"/>
    </valueQuantity>
    
    <effectiveDateTime value="2004-05-11"/>
    <status value="final"/>
    <subject>
      <reference value="Patient/629528"/>
    </subject>
    <encounter>
      <reference value="Encounter/38"/>
    </encounter>
    
  </Observation>
  
  </resource>
  <request>
    <method value="POST"/>
    <url value="Observation/38-height"/>
  </request>
</entry>
<entry>
  <resource>
    
    
  <Observation>
  <id value="38-heartrate"/>
    <text>
      <status value="generated"/>
      <div xmlns="http://www.w3.org/1999/xhtml">2004-05-11: heart_rate = 76.0 {beats}/min</div>
    </text>
    <code>
      <coding>
        <system value="http://loinc.org"/>
        <code value="8867-4"/>
        <display value="heart_rate"/>
      </coding>
      <text value="heart_rate"/>
    </code>
    <valueQuantity>
      <value value="76.0"/>
      <unit value="{beats}/min"/>
      <system value="http://unitsofmeasure.org" />
      <code value="{beats}/min"/>
    </valueQuantity>
    
    <effectiveDateTime value="2004-05-11"/>
    <status value="final"/>
    <subject>
      <reference value="Patient/629528"/>
    </subject>
    <encounter>
      <reference value="Encounter/38"/>
    </encounter>
    
  </Observation>
  
  </resource>
  <request>
    <method value="POST"/>
    <url value="Observation/38-heartrate"/>
  </request>
</entry>
<entry>
  <resource>
    
    
  <Observation>
  <id value="38-respiratoryrate"/>
    <text>
      <status value="generated"/>
      <div xmlns="http://www.w3.org/1999/xhtml">2004-05-11: respiratory_rate = 15.0 {breaths}/min</div>
    </text>
    <code>
      <coding>
        <system value="http://loinc.org"/>
        <code value="9279-1"/>
        <display value="respiratory_rate"/>
      </coding>
      <text value="respiratory_rate"/>
    </code>
    <valueQuantity>
      <value value="15.0"/>
      <unit value="{breaths}/min"/>
      <system value="http://unitsofmeasure.org" />
      <code value="{breaths}/min"/>
    </valueQuantity>
    
    <effectiveDateTime value="2004-05-11"/>
    <status value="final"/>
    <subject>
      <reference value="Patient/629528"/>
    </subject>
    <encounter>
      <reference value="Encounter/38"/>
    </encounter>
    
  </Observation>
  
  </resource>
  <request>
    <method value="POST"/>
    <url value="Observation/38-respiratoryrate"/>
  </request>
</entry>
<entry>
  <resource>
    
    
  <Observation>
  <id value="38-temperature"/>
    <text>
      <status value="generated"/>
      <div xmlns="http://www.w3.org/1999/xhtml">2004-05-11: temperature = 36.66667 Cel</div>
    </text>
    <code>
      <coding>
        <system value="http://loinc.org"/>
        <code value="8310-5"/>
        <display value="temperature"/>
      </coding>
      <text value="temperature"/>
    </code>
    <valueQuantity>
      <value value="36.66667"/>
      <unit value="Cel"/>
      <system value="http://unitsofmeasure.org" />
      <code value="Cel"/>
    </valueQuantity>
    
    <effectiveDateTime value="2004-05-11"/>
    <status value="final"/>
    <subject>
      <reference value="Patient/629528"/>
    </subject>
    <encounter>
      <reference value="Encounter/38"/>
    </encounter>
    
  </Observation>
  
  </resource>
  <request>
    <method value="POST"/>
    <url value="Observation/38-temperature"/>
  </request>
</entry>
<entry>
  <resource>
    
    
  <Observation>
  <id value="38-weight"/>
    <text>
      <status value="generated"/>
      <div xmlns="http://www.w3.org/1999/xhtml">2004-05-11: weight = 48.03543 kg</div>
    </text>
    <code>
      <coding>
        <system value="http://loinc.org"/>
        <code value="3141-9"/>
        <display value="weight"/>
      </coding>
      <text value="weight"/>
    </code>
    <valueQuantity>
      <value value="48.03543"/>
      <unit value="kg"/>
      <system value="http://unitsofmeasure.org" />
      <code value="kg"/>
    </valueQuantity>
    
    <effectiveDateTime value="2004-05-11"/>
    <status value="final"/>
    <subject>
      <reference value="Patient/629528"/>
    </subject>
    <encounter>
      <reference value="Encounter/38"/>
    </encounter>
    
  </Observation>
  
  </resource>
  <request>
    <method value="POST"/>
    <url value="Observation/38-weight"/>
  </request>
</entry>
<entry>
  <resource>
    
    
  <Observation>
  <id value="38-bmi"/>
    <text>
      <status value="generated"/>
      <div xmlns="http://www.w3.org/1999/xhtml">2004-05-11: bmi = 16.9 kg/m2</div>
    </text>
    <code>
      <coding>
        <system value="http://loinc.org"/>
        <code value="39156-5"/>
        <display value="bmi"/>
      </coding>
      <text value="bmi"/>
    </code>
    <valueQuantity>
      <value value="16.9"/>
      <unit value="kg/m2"/>
      <system value="http://unitsofmeasure.org" />
      <code value="kg/m2"/>
    </valueQuantity>
    
    <effectiveDateTime value="2004-05-11"/>
    <status value="final"/>
    <subject>
      <reference value="Patient/629528"/>
    </subject>
    <encounter>
      <reference value="Encounter/38"/>
    </encounter>
    
  </Observation>
  
  </resource>
  <request>
    <method value="POST"/>
    <url value="Observation/38-bmi"/>
  </request>
</entry>
<entry>
  <resource>
    
    
  <Observation>
  <id value="38-oxygensaturation"/>
    <text>
      <status value="generated"/>
      <div xmlns="http://www.w3.org/1999/xhtml">2004-05-11: oxygen_saturation = 97.0 %{HemoglobinSaturation}</div>
    </text>
    <code>
      <coding>
        <system value="http://loinc.org"/>
        <code value="2710-2"/>
        <display value="oxygen_saturation"/>
      </coding>
      <text value="oxygen_saturation"/>
    </code>
    <valueQuantity>
      <value value="97.0"/>
      <unit value="%{HemoglobinSaturation}"/>
      <system value="http://unitsofmeasure.org" />
      <code value="%{HemoglobinSaturation}"/>
    </valueQuantity>
    
    <effectiveDateTime value="2004-05-11"/>
    <status value="final"/>
    <subject>
      <reference value="Patient/629528"/>
    </subject>
    <encounter>
      <reference value="Encounter/38"/>
    </encounter>
    
  </Observation>
  
  </resource>
  <request>
    <method value="POST"/>
    <url value="Observation/38-oxygensaturation"/>
  </request>
</entry>
<entry>
  <resource>
    
    
  <Observation>
  <id value="39-height"/>
    <text>
      <status value="generated"/>
      <div xmlns="http://www.w3.org/1999/xhtml">2004-09-03: height = 168.402 cm</div>
    </text>
    <code>
      <coding>
        <system value="http://loinc.org"/>
        <code value="8302-2"/>
        <display value="height"/>
      </coding>
      <text value="height"/>
    </code>
    <valueQuantity>
      <value value="168.402"/>
      <unit value="cm"/>
      <system value="http://unitsofmeasure.org" />
      <code value="cm"/>
    </valueQuantity>
    
    <effectiveDateTime value="2004-09-03"/>
    <status value="final"/>
    <subject>
      <reference value="Patient/629528"/>
    </subject>
    <encounter>
      <reference value="Encounter/39"/>
    </encounter>
    
  </Observation>
  
  </resource>
  <request>
    <method value="POST"/>
    <url value="Observation/39-height"/>
  </request>
</entry>
<entry>
  <resource>
    
    
  <Observation>
  <id value="39-heartrate"/>
    <text>
      <status value="generated"/>
      <div xmlns="http://www.w3.org/1999/xhtml">2004-09-03: heart_rate = 77.0 {beats}/min</div>
    </text>
    <code>
      <coding>
        <system value="http://loinc.org"/>
        <code value="8867-4"/>
        <display value="heart_rate"/>
      </coding>
      <text value="heart_rate"/>
    </code>
    <valueQuantity>
      <value value="77.0"/>
      <unit value="{beats}/min"/>
      <system value="http://unitsofmeasure.org" />
      <code value="{beats}/min"/>
    </valueQuantity>
    
    <effectiveDateTime value="2004-09-03"/>
    <status value="final"/>
    <subject>
      <reference value="Patient/629528"/>
    </subject>
    <encounter>
      <reference value="Encounter/39"/>
    </encounter>
    
  </Observation>
  
  </resource>
  <request>
    <method value="POST"/>
    <url value="Observation/39-heartrate"/>
  </request>
</entry>
<entry>
  <resource>
    
    
  <Observation>
  <id value="39-respiratoryrate"/>
    <text>
      <status value="generated"/>
      <div xmlns="http://www.w3.org/1999/xhtml">2004-09-03: respiratory_rate = 15.0 {breaths}/min</div>
    </text>
    <code>
      <coding>
        <system value="http://loinc.org"/>
        <code value="9279-1"/>
        <display value="respiratory_rate"/>
      </coding>
      <text value="respiratory_rate"/>
    </code>
    <valueQuantity>
      <value value="15.0"/>
      <unit value="{breaths}/min"/>
      <system value="http://unitsofmeasure.org" />
      <code value="{breaths}/min"/>
    </valueQuantity>
    
    <effectiveDateTime value="2004-09-03"/>
    <status value="final"/>
    <subject>
      <reference value="Patient/629528"/>
    </subject>
    <encounter>
      <reference value="Encounter/39"/>
    </encounter>
    
  </Observation>
  
  </resource>
  <request>
    <method value="POST"/>
    <url value="Observation/39-respiratoryrate"/>
  </request>
</entry>
<entry>
  <resource>
    
    
  <Observation>
  <id value="39-temperature"/>
    <text>
      <status value="generated"/>
      <div xmlns="http://www.w3.org/1999/xhtml">2004-09-03: temperature = 36.66667 Cel</div>
    </text>
    <code>
      <coding>
        <system value="http://loinc.org"/>
        <code value="8310-5"/>
        <display value="temperature"/>
      </coding>
      <text value="temperature"/>
    </code>
    <valueQuantity>
      <value value="36.66667"/>
      <unit value="Cel"/>
      <system value="http://unitsofmeasure.org" />
      <code value="Cel"/>
    </valueQuantity>
    
    <effectiveDateTime value="2004-09-03"/>
    <status value="final"/>
    <subject>
      <reference value="Patient/629528"/>
    </subject>
    <encounter>
      <reference value="Encounter/39"/>
    </encounter>
    
  </Observation>
  
  </resource>
  <request>
    <method value="POST"/>
    <url value="Observation/39-temperature"/>
  </request>
</entry>
<entry>
  <resource>
    
    
  <Observation>
  <id value="39-weight"/>
    <text>
      <status value="generated"/>
      <div xmlns="http://www.w3.org/1999/xhtml">2004-09-03: weight = 44.86029 kg</div>
    </text>
    <code>
      <coding>
        <system value="http://loinc.org"/>
        <code value="3141-9"/>
        <display value="weight"/>
      </coding>
      <text value="weight"/>
    </code>
    <valueQuantity>
      <value value="44.86029"/>
      <unit value="kg"/>
      <system value="http://unitsofmeasure.org" />
      <code value="kg"/>
    </valueQuantity>
    
    <effectiveDateTime value="2004-09-03"/>
    <status value="final"/>
    <subject>
      <reference value="Patient/629528"/>
    </subject>
    <encounter>
      <reference value="Encounter/39"/>
    </encounter>
    
  </Observation>
  
  </resource>
  <request>
    <method value="POST"/>
    <url value="Observation/39-weight"/>
  </request>
</entry>
<entry>
  <resource>
    
    
  <Observation>
  <id value="39-bmi"/>
    <text>
      <status value="generated"/>
      <div xmlns="http://www.w3.org/1999/xhtml">2004-09-03: bmi = 15.8 kg/m2</div>
    </text>
    <code>
      <coding>
        <system value="http://loinc.org"/>
        <code value="39156-5"/>
        <display value="bmi"/>
      </coding>
      <text value="bmi"/>
    </code>
    <valueQuantity>
      <value value="15.8"/>
      <unit value="kg/m2"/>
      <system value="http://unitsofmeasure.org" />
      <code value="kg/m2"/>
    </valueQuantity>
    
    <effectiveDateTime value="2004-09-03"/>
    <status value="final"/>
    <subject>
      <reference value="Patient/629528"/>
    </subject>
    <encounter>
      <reference value="Encounter/39"/>
    </encounter>
    
  </Observation>
  
  </resource>
  <request>
    <method value="POST"/>
    <url value="Observation/39-bmi"/>
  </request>
</entry>
<entry>
  <resource>
    
    
  <Observation>
  <id value="39-oxygensaturation"/>
    <text>
      <status value="generated"/>
      <div xmlns="http://www.w3.org/1999/xhtml">2004-09-03: oxygen_saturation = 97.0 %{HemoglobinSaturation}</div>
    </text>
    <code>
      <coding>
        <system value="http://loinc.org"/>
        <code value="2710-2"/>
        <display value="oxygen_saturation"/>
      </coding>
      <text value="oxygen_saturation"/>
    </code>
    <valueQuantity>
      <value value="97.0"/>
      <unit value="%{HemoglobinSaturation}"/>
      <system value="http://unitsofmeasure.org" />
      <code value="%{HemoglobinSaturation}"/>
    </valueQuantity>
    
    <effectiveDateTime value="2004-09-03"/>
    <status value="final"/>
    <subject>
      <reference value="Patient/629528"/>
    </subject>
    <encounter>
      <reference value="Encounter/39"/>
    </encounter>
    
  </Observation>
  
  </resource>
  <request>
    <method value="POST"/>
    <url value="Observation/39-oxygensaturation"/>
  </request>
</entry>
<entry>
  <resource>
    
    
  <Observation>
  <id value="1857-lab"/>
    <text>
      <status value="generated"/>
      <div xmlns="http://www.w3.org/1999/xhtml">2009-03-26: PMV Bld = 11.2 fL</div>
    </text>
    <code>
      <coding>
        <system value="http://loinc.org"/>
        <code value="28542-9"/>
        <display value="PMV Bld"/>
      </coding>
      <text value="PMV Bld"/>
    </code>
    <valueQuantity>
      <value value="11.2"/>
      <unit value="fL"/>
      <system value="http://unitsofmeasure.org" />
      <code value=""/>
    </valueQuantity>
    
    <effectiveDateTime value="2009-03-26"/>
    <status value="final"/>
    <subject>
      <reference value="Patient/629528"/>
    </subject>
    <referenceRange>
      <meaning>
        <coding>
         <system value="http://hl7.org/fhir/referencerange-meaning"/>
         <code value="normal"/>
         <display value="Normal Range"/>
       </coding>
       <text value="Normal Range"/>
      </meaning>
      <low>
        <value value="6.0"/>
        <unit value="fL"/>
        <code value="fL"/>
        <system value="http://unitsofmeasure.org"/>
      </low>
      <high>
        <value value="9.5"/>
        <unit value="fL"/>
        <code value="fL"/>
        <system value="http://unitsofmeasure.org"/>
      </high>
    </referenceRange>
    
  </Observation>
  
  </resource>
  <request>
    <method value="POST"/>
    <url value="Observation/1857-lab"/>
  </request>
</entry>
<entry>
  <resource>
    
    
  <Observation>
  <id value="1858-lab"/>
    <text>
      <status value="generated"/>
      <div xmlns="http://www.w3.org/1999/xhtml">2009-03-26: Basophils NFr Bld = 1 %</div>
    </text>
    <code>
      <coding>
        <system value="http://loinc.org"/>
        <code value="30180-4"/>
        <display value="Basophils NFr Bld"/>
      </coding>
      <text value="Basophils NFr Bld"/>
    </code>
    <valueQuantity>
      <value value="1.0"/>
      <unit value="%"/>
      <system value="http://unitsofmeasure.org" />
      <code value=""/>
    </valueQuantity>
    
    <effectiveDateTime value="2009-03-26"/>
    <status value="final"/>
    <subject>
      <reference value="Patient/629528"/>
    </subject>
    <referenceRange>
      <meaning>
        <coding>
         <system value="http://hl7.org/fhir/referencerange-meaning"/>
         <code value="normal"/>
         <display value="Normal Range"/>
       </coding>
       <text value="Normal Range"/>
      </meaning>
      <low>
        <value value="0.0"/>
        <unit value="%"/>
        <code value="%"/>
        <system value="http://unitsofmeasure.org"/>
      </low>
      <high>
        <value value="2.0"/>
        <unit value="%"/>
        <code value="%"/>
        <system value="http://unitsofmeasure.org"/>
      </high>
    </referenceRange>
    
  </Observation>
  
  </resource>
  <request>
    <method value="POST"/>
    <url value="Observation/1858-lab"/>
  </request>
</entry>
<entry>
  <resource>
    
    
  <Observation>
  <id value="1859-lab"/>
    <text>
      <status value="generated"/>
      <div xmlns="http://www.w3.org/1999/xhtml">2009-03-26: Hgb Bld-mCnc = 13.2 g/dL</div>
    </text>
    <code>
      <coding>
        <system value="http://loinc.org"/>
        <code value="718-7"/>
        <display value="Hgb Bld-mCnc"/>
      </coding>
      <text value="Hgb Bld-mCnc"/>
    </code>
    <valueQuantity>
      <value value="13.2"/>
      <unit value="g/dL"/>
      <system value="http://unitsofmeasure.org" />
      <code value=""/>
    </valueQuantity>
    
    <effectiveDateTime value="2009-03-26"/>
    <status value="final"/>
    <subject>
      <reference value="Patient/629528"/>
    </subject>
    <referenceRange>
      <meaning>
        <coding>
         <system value="http://hl7.org/fhir/referencerange-meaning"/>
         <code value="normal"/>
         <display value="Normal Range"/>
       </coding>
       <text value="Normal Range"/>
      </meaning>
      <low>
        <value value="12.5"/>
        <unit value="g/dL"/>
        <code value="g/dL"/>
        <system value="http://unitsofmeasure.org"/>
      </low>
      <high>
        <value value="16.0"/>
        <unit value="g/dL"/>
        <code value="g/dL"/>
        <system value="http://unitsofmeasure.org"/>
      </high>
    </referenceRange>
    
  </Observation>
  
  </resource>
  <request>
    <method value="POST"/>
    <url value="Observation/1859-lab"/>
  </request>
</entry>
<entry>
  <resource>
    
    
  <Observation>
  <id value="1860-lab"/>
    <text>
      <status value="generated"/>
      <div xmlns="http://www.w3.org/1999/xhtml">2009-03-26: Trigl SerPl-mCnc = 132 mg/dL</div>
    </text>
    <code>
      <coding>
        <system value="http://loinc.org"/>
        <code value="2571-8"/>
        <display value="Trigl SerPl-mCnc"/>
      </coding>
      <text value="Trigl SerPl-mCnc"/>
    </code>
    <valueQuantity>
      <value value="132.0"/>
      <unit value="mg/dL"/>
      <system value="http://unitsofmeasure.org" />
      <code value=""/>
    </valueQuantity>
    
    <effectiveDateTime value="2009-03-26"/>
    <status value="final"/>
    <subject>
      <reference value="Patient/629528"/>
    </subject>
    <referenceRange>
      <meaning>
        <coding>
         <system value="http://hl7.org/fhir/referencerange-meaning"/>
         <code value="normal"/>
         <display value="Normal Range"/>
       </coding>
       <text value="Normal Range"/>
      </meaning>
      <low>
        <value value="0.0"/>
        <unit value="mg/dL"/>
        <code value="mg/dL"/>
        <system value="http://unitsofmeasure.org"/>
      </low>
      <high>
        <value value="0.0"/>
        <unit value="mg/dL"/>
        <code value="mg/dL"/>
        <system value="http://unitsofmeasure.org"/>
      </high>
    </referenceRange>
    
  </Observation>
  
  </resource>
  <request>
    <method value="POST"/>
    <url value="Observation/1860-lab"/>
  </request>
</entry>
<entry>
  <resource>
    
    
  <Observation>
  <id value="1861-lab"/>
    <text>
      <status value="generated"/>
      <div xmlns="http://www.w3.org/1999/xhtml">2009-03-26: Cholest SerPl-mCnc = 203 mg/dL</div>
    </text>
    <code>
      <coding>
        <system value="http://loinc.org"/>
        <code value="2093-3"/>
        <display value="Cholest SerPl-mCnc"/>
      </coding>
      <text value="Cholest SerPl-mCnc"/>
    </code>
    <valueQuantity>
      <value value="203.0"/>
      <unit value="mg/dL"/>
      <system value="http://unitsofmeasure.org" />
      <code value=""/>
    </valueQuantity>
    
    <effectiveDateTime value="2009-03-26"/>
    <status value="final"/>
    <subject>
      <reference value="Patient/629528"/>
    </subject>
    <referenceRange>
      <meaning>
        <coding>
         <system value="http://hl7.org/fhir/referencerange-meaning"/>
         <code value="normal"/>
         <display value="Normal Range"/>
       </coding>
       <text value="Normal Range"/>
      </meaning>
      <low>
        <value value="0.0"/>
        <unit value="mg/dL"/>
        <code value="mg/dL"/>
        <system value="http://unitsofmeasure.org"/>
      </low>
      <high>
        <value value="0.0"/>
        <unit value="mg/dL"/>
        <code value="mg/dL"/>
        <system value="http://unitsofmeasure.org"/>
      </high>
    </referenceRange>
    
  </Observation>
  
  </resource>
  <request>
    <method value="POST"/>
    <url value="Observation/1861-lab"/>
  </request>
</entry>
<entry>
  <resource>
    
    
  <Observation>
  <id value="1862-lab"/>
    <text>
      <status value="generated"/>
      <div xmlns="http://www.w3.org/1999/xhtml">2009-03-26: WBC # Bld = 7 10*3/uL</div>
    </text>
    <code>
      <coding>
        <system value="http://loinc.org"/>
        <code value="26464-8"/>
        <display value="WBC # Bld"/>
      </coding>
      <text value="WBC # Bld"/>
    </code>
    <valueQuantity>
      <value value="7.0"/>
      <unit value="10*3/uL"/>
      <system value="http://unitsofmeasure.org" />
      <code value=""/>
    </valueQuantity>
    
    <effectiveDateTime value="2009-03-26"/>
    <status value="final"/>
    <subject>
      <reference value="Patient/629528"/>
    </subject>
    <referenceRange>
      <meaning>
        <coding>
         <system value="http://hl7.org/fhir/referencerange-meaning"/>
         <code value="normal"/>
         <display value="Normal Range"/>
       </coding>
       <text value="Normal Range"/>
      </meaning>
      <low>
        <value value="3.2"/>
        <unit value="10*3/uL"/>
        <code value="10*3/uL"/>
        <system value="http://unitsofmeasure.org"/>
      </low>
      <high>
        <value value="10.5"/>
        <unit value="10*3/uL"/>
        <code value="10*3/uL"/>
        <system value="http://unitsofmeasure.org"/>
      </high>
    </referenceRange>
    
  </Observation>
  
  </resource>
  <request>
    <method value="POST"/>
    <url value="Observation/1862-lab"/>
  </request>
</entry>
<entry>
  <resource>
    
    
  <Observation>
  <id value="1863-lab"/>
    <text>
      <status value="generated"/>
      <div xmlns="http://www.w3.org/1999/xhtml">2009-03-26: RBC # Bld Auto = 4.28 10*6/uL</div>
    </text>
    <code>
      <coding>
        <system value="http://loinc.org"/>
        <code value="789-8"/>
        <display value="RBC # Bld Auto"/>
      </coding>
      <text value="RBC # Bld Auto"/>
    </code>
    <valueQuantity>
      <value value="4.28"/>
      <unit value="10*6/uL"/>
      <system value="http://unitsofmeasure.org" />
      <code value=""/>
    </valueQuantity>
    
    <effectiveDateTime value="2009-03-26"/>
    <status value="final"/>
    <subject>
      <reference value="Patient/629528"/>
    </subject>
    <referenceRange>
      <meaning>
        <coding>
         <system value="http://hl7.org/fhir/referencerange-meaning"/>
         <code value="normal"/>
         <display value="Normal Range"/>
       </coding>
       <text value="Normal Range"/>
      </meaning>
      <low>
        <value value="4.2"/>
        <unit value="10*6/uL"/>
        <code value="10*6/uL"/>
        <system value="http://unitsofmeasure.org"/>
      </low>
      <high>
        <value value="5.4"/>
        <unit value="10*6/uL"/>
        <code value="10*6/uL"/>
        <system value="http://unitsofmeasure.org"/>
      </high>
    </referenceRange>
    
  </Observation>
  
  </resource>
  <request>
    <method value="POST"/>
    <url value="Observation/1863-lab"/>
  </request>
</entry>
<entry>
  <resource>
    
    
  <Observation>
  <id value="1864-lab"/>
    <text>
      <status value="generated"/>
      <div xmlns="http://www.w3.org/1999/xhtml">2009-03-26: Glucose SerPl-mCnc = 88 mg/dL</div>
    </text>
    <code>
      <coding>
        <system value="http://loinc.org"/>
        <code value="2345-7"/>
        <display value="Glucose SerPl-mCnc"/>
      </coding>
      <text value="Glucose SerPl-mCnc"/>
    </code>
    <valueQuantity>
      <value value="88.0"/>
      <unit value="mg/dL"/>
      <system value="http://unitsofmeasure.org" />
      <code value=""/>
    </valueQuantity>
    
    <effectiveDateTime value="2009-03-26"/>
    <status value="final"/>
    <subject>
      <reference value="Patient/629528"/>
    </subject>
    <referenceRange>
      <meaning>
        <coding>
         <system value="http://hl7.org/fhir/referencerange-meaning"/>
         <code value="normal"/>
         <display value="Normal Range"/>
       </coding>
       <text value="Normal Range"/>
      </meaning>
      <low>
        <value value="65.0"/>
        <unit value="mg/dL"/>
        <code value="mg/dL"/>
        <system value="http://unitsofmeasure.org"/>
      </low>
      <high>
        <value value="99.0"/>
        <unit value="mg/dL"/>
        <code value="mg/dL"/>
        <system value="http://unitsofmeasure.org"/>
      </high>
    </referenceRange>
    
  </Observation>
  
  </resource>
  <request>
    <method value="POST"/>
    <url value="Observation/1864-lab"/>
  </request>
</entry>
<entry>
  <resource>
    
    
  <Observation>
  <id value="1865-lab"/>
    <text>
      <status value="generated"/>
      <div xmlns="http://www.w3.org/1999/xhtml">2009-03-26: BUN SerPl-mCnc = 10 mg/dL</div>
    </text>
    <code>
      <coding>
        <system value="http://loinc.org"/>
        <code value="3094-0"/>
        <display value="BUN SerPl-mCnc"/>
      </coding>
      <text value="BUN SerPl-mCnc"/>
    </code>
    <valueQuantity>
      <value value="10.0"/>
      <unit value="mg/dL"/>
      <system value="http://unitsofmeasure.org" />
      <code value=""/>
    </valueQuantity>
    
    <effectiveDateTime value="2009-03-26"/>
    <status value="final"/>
    <subject>
      <reference value="Patient/629528"/>
    </subject>
    <referenceRange>
      <meaning>
        <coding>
         <system value="http://hl7.org/fhir/referencerange-meaning"/>
         <code value="normal"/>
         <display value="Normal Range"/>
       </coding>
       <text value="Normal Range"/>
      </meaning>
      <low>
        <value value="8.0"/>
        <unit value="mg/dL"/>
        <code value="mg/dL"/>
        <system value="http://unitsofmeasure.org"/>
      </low>
      <high>
        <value value="25.0"/>
        <unit value="mg/dL"/>
        <code value="mg/dL"/>
        <system value="http://unitsofmeasure.org"/>
      </high>
    </referenceRange>
    
  </Observation>
  
  </resource>
  <request>
    <method value="POST"/>
    <url value="Observation/1865-lab"/>
  </request>
</entry>
<entry>
  <resource>
    
    
  <Observation>
  <id value="1866-lab"/>
    <text>
      <status value="generated"/>
      <div xmlns="http://www.w3.org/1999/xhtml">2009-03-26: AST SerPl-cCnc = 29 U/L</div>
    </text>
    <code>
      <coding>
        <system value="http://loinc.org"/>
        <code value="1920-8"/>
        <display value="AST SerPl-cCnc"/>
      </coding>
      <text value="AST SerPl-cCnc"/>
    </code>
    <valueQuantity>
      <value value="29.0"/>
      <unit value="U/L"/>
      <system value="http://unitsofmeasure.org" />
      <code value=""/>
    </valueQuantity>
    
    <effectiveDateTime value="2009-03-26"/>
    <status value="final"/>
    <subject>
      <reference value="Patient/629528"/>
    </subject>
    <referenceRange>
      <meaning>
        <coding>
         <system value="http://hl7.org/fhir/referencerange-meaning"/>
         <code value="normal"/>
         <display value="Normal Range"/>
       </coding>
       <text value="Normal Range"/>
      </meaning>
      <low>
        <value value="0.0"/>
        <unit value="U/L"/>
        <code value="U/L"/>
        <system value="http://unitsofmeasure.org"/>
      </low>
      <high>
        <value value="31.0"/>
        <unit value="U/L"/>
        <code value="U/L"/>
        <system value="http://unitsofmeasure.org"/>
      </high>
    </referenceRange>
    
  </Observation>
  
  </resource>
  <request>
    <method value="POST"/>
    <url value="Observation/1866-lab"/>
  </request>
</entry>
<entry>
  <resource>
    
    
  <Observation>
  <id value="1867-lab"/>
    <text>
      <status value="generated"/>
      <div xmlns="http://www.w3.org/1999/xhtml">2009-03-26: Sodium SerPl-sCnc = 140 mmol/L</div>
    </text>
    <code>
      <coding>
        <system value="http://loinc.org"/>
        <code value="2951-2"/>
        <display value="Sodium SerPl-sCnc"/>
      </coding>
      <text value="Sodium SerPl-sCnc"/>
    </code>
    <valueQuantity>
      <value value="140.0"/>
      <unit value="mmol/L"/>
      <system value="http://unitsofmeasure.org" />
      <code value=""/>
    </valueQuantity>
    
    <effectiveDateTime value="2009-03-26"/>
    <status value="final"/>
    <subject>
      <reference value="Patient/629528"/>
    </subject>
    <referenceRange>
      <meaning>
        <coding>
         <system value="http://hl7.org/fhir/referencerange-meaning"/>
         <code value="normal"/>
         <display value="Normal Range"/>
       </coding>
       <text value="Normal Range"/>
      </meaning>
      <low>
        <value value="133.0"/>
        <unit value="mmol/L"/>
        <code value="mmol/L"/>
        <system value="http://unitsofmeasure.org"/>
      </low>
      <high>
        <value value="145.0"/>
        <unit value="mmol/L"/>
        <code value="mmol/L"/>
        <system value="http://unitsofmeasure.org"/>
      </high>
    </referenceRange>
    
  </Observation>
  
  </resource>
  <request>
    <method value="POST"/>
    <url value="Observation/1867-lab"/>
  </request>
</entry>
<entry>
  <resource>
    
    
  <Observation>
  <id value="1868-lab"/>
    <text>
      <status value="generated"/>
      <div xmlns="http://www.w3.org/1999/xhtml">2009-03-26: Creat SerPl-mCnc = 0.8 mg/dL</div>
    </text>
    <code>
      <coding>
        <system value="http://loinc.org"/>
        <code value="2160-0"/>
        <display value="Creat SerPl-mCnc"/>
      </coding>
      <text value="Creat SerPl-mCnc"/>
    </code>
    <valueQuantity>
      <value value="0.8"/>
      <unit value="mg/dL"/>
      <system value="http://unitsofmeasure.org" />
      <code value=""/>
    </valueQuantity>
    
    <effectiveDateTime value="2009-03-26"/>
    <status value="final"/>
    <subject>
      <reference value="Patient/629528"/>
    </subject>
    <referenceRange>
      <meaning>
        <coding>
         <system value="http://hl7.org/fhir/referencerange-meaning"/>
         <code value="normal"/>
         <display value="Normal Range"/>
       </coding>
       <text value="Normal Range"/>
      </meaning>
      <low>
        <value value="0.6"/>
        <unit value="mg/dL"/>
        <code value="mg/dL"/>
        <system value="http://unitsofmeasure.org"/>
      </low>
      <high>
        <value value="1.3"/>
        <unit value="mg/dL"/>
        <code value="mg/dL"/>
        <system value="http://unitsofmeasure.org"/>
      </high>
    </referenceRange>
    
  </Observation>
  
  </resource>
  <request>
    <method value="POST"/>
    <url value="Observation/1868-lab"/>
  </request>
</entry>
<entry>
  <resource>
    
    
  <Observation>
  <id value="1869-lab"/>
    <text>
      <status value="generated"/>
      <div xmlns="http://www.w3.org/1999/xhtml">2009-03-26: ALT SerPl-cCnc = 26 U/L</div>
    </text>
    <code>
      <coding>
        <system value="http://loinc.org"/>
        <code value="1742-6"/>
        <display value="ALT SerPl-cCnc"/>
      </coding>
      <text value="ALT SerPl-cCnc"/>
    </code>
    <valueQuantity>
      <value value="26.0"/>
      <unit value="U/L"/>
      <system value="http://unitsofmeasure.org" />
      <code value=""/>
    </valueQuantity>
    
    <effectiveDateTime value="2009-03-26"/>
    <status value="final"/>
    <subject>
      <reference value="Patient/629528"/>
    </subject>
    <referenceRange>
      <meaning>
        <coding>
         <system value="http://hl7.org/fhir/referencerange-meaning"/>
         <code value="normal"/>
         <display value="Normal Range"/>
       </coding>
       <text value="Normal Range"/>
      </meaning>
      <low>
        <value value="0.0"/>
        <unit value="U/L"/>
        <code value="U/L"/>
        <system value="http://unitsofmeasure.org"/>
      </low>
      <high>
        <value value="40.0"/>
        <unit value="U/L"/>
        <code value="U/L"/>
        <system value="http://unitsofmeasure.org"/>
      </high>
    </referenceRange>
    
  </Observation>
  
  </resource>
  <request>
    <method value="POST"/>
    <url value="Observation/1869-lab"/>
  </request>
</entry>
<entry>
  <resource>
    
    
  <Observation>
  <id value="1870-lab"/>
    <text>
      <status value="generated"/>
      <div xmlns="http://www.w3.org/1999/xhtml">2009-03-26: Potassium SerPl-sCnc = 4.4 mmol/L</div>
    </text>
    <code>
      <coding>
        <system value="http://loinc.org"/>
        <code value="2823-3"/>
        <display value="Potassium SerPl-sCnc"/>
      </coding>
      <text value="Potassium SerPl-sCnc"/>
    </code>
    <valueQuantity>
      <value value="4.4"/>
      <unit value="mmol/L"/>
      <system value="http://unitsofmeasure.org" />
      <code value=""/>
    </valueQuantity>
    
    <effectiveDateTime value="2009-03-26"/>
    <status value="final"/>
    <subject>
      <reference value="Patient/629528"/>
    </subject>
    <referenceRange>
      <meaning>
        <coding>
         <system value="http://hl7.org/fhir/referencerange-meaning"/>
         <code value="normal"/>
         <display value="Normal Range"/>
       </coding>
       <text value="Normal Range"/>
      </meaning>
      <low>
        <value value="3.6"/>
        <unit value="mmol/L"/>
        <code value="mmol/L"/>
        <system value="http://unitsofmeasure.org"/>
      </low>
      <high>
        <value value="5.5"/>
        <unit value="mmol/L"/>
        <code value="mmol/L"/>
        <system value="http://unitsofmeasure.org"/>
      </high>
    </referenceRange>
    
  </Observation>
  
  </resource>
  <request>
    <method value="POST"/>
    <url value="Observation/1870-lab"/>
  </request>
</entry>
<entry>
  <resource>
    
    
  <Observation>
  <id value="1871-lab"/>
    <text>
      <status value="generated"/>
      <div xmlns="http://www.w3.org/1999/xhtml">2009-03-26: Chloride SerPl-sCnc = 106 mmol/L</div>
    </text>
    <code>
      <coding>
        <system value="http://loinc.org"/>
        <code value="2075-0"/>
        <display value="Chloride SerPl-sCnc"/>
      </coding>
      <text value="Chloride SerPl-sCnc"/>
    </code>
    <valueQuantity>
      <value value="106.0"/>
      <unit value="mmol/L"/>
      <system value="http://unitsofmeasure.org" />
      <code value=""/>
    </valueQuantity>
    
    <effectiveDateTime value="2009-03-26"/>
    <status value="final"/>
    <subject>
      <reference value="Patient/629528"/>
    </subject>
    <referenceRange>
      <meaning>
        <coding>
         <system value="http://hl7.org/fhir/referencerange-meaning"/>
         <code value="normal"/>
         <display value="Normal Range"/>
       </coding>
       <text value="Normal Range"/>
      </meaning>
      <low>
        <value value="96.0"/>
        <unit value="mmol/L"/>
        <code value="mmol/L"/>
        <system value="http://unitsofmeasure.org"/>
      </low>
      <high>
        <value value="108.0"/>
        <unit value="mmol/L"/>
        <code value="mmol/L"/>
        <system value="http://unitsofmeasure.org"/>
      </high>
    </referenceRange>
    
  </Observation>
  
  </resource>
  <request>
    <method value="POST"/>
    <url value="Observation/1871-lab"/>
  </request>
</entry>
<entry>
  <resource>
    
    
  <Observation>
  <id value="1872-lab"/>
    <text>
      <status value="generated"/>
      <div xmlns="http://www.w3.org/1999/xhtml">2009-03-26: Lymphocytes NFr Bld = 34 %</div>
    </text>
    <code>
      <coding>
        <system value="http://loinc.org"/>
        <code value="26478-8"/>
        <display value="Lymphocytes NFr Bld"/>
      </coding>
      <text value="Lymphocytes NFr Bld"/>
    </code>
    <valueQuantity>
      <value value="34.0"/>
      <unit value="%"/>
      <system value="http://unitsofmeasure.org" />
      <code value=""/>
    </valueQuantity>
    
    <effectiveDateTime value="2009-03-26"/>
    <status value="final"/>
    <subject>
      <reference value="Patient/629528"/>
    </subject>
    <referenceRange>
      <meaning>
        <coding>
         <system value="http://hl7.org/fhir/referencerange-meaning"/>
         <code value="normal"/>
         <display value="Normal Range"/>
       </coding>
       <text value="Normal Range"/>
      </meaning>
      <low>
        <value value="20.0"/>
        <unit value="%"/>
        <code value="%"/>
        <system value="http://unitsofmeasure.org"/>
      </low>
      <high>
        <value value="50.0"/>
        <unit value="%"/>
        <code value="%"/>
        <system value="http://unitsofmeasure.org"/>
      </high>
    </referenceRange>
    
  </Observation>
  
  </resource>
  <request>
    <method value="POST"/>
    <url value="Observation/1872-lab"/>
  </request>
</entry>
<entry>
  <resource>
    
    
  <Observation>
  <id value="1873-lab"/>
    <text>
      <status value="generated"/>
      <div xmlns="http://www.w3.org/1999/xhtml">2009-03-26: Eosinophil NFr Bld = 3 %</div>
    </text>
    <code>
      <coding>
        <system value="http://loinc.org"/>
        <code value="26450-7"/>
        <display value="Eosinophil NFr Bld"/>
      </coding>
      <text value="Eosinophil NFr Bld"/>
    </code>
    <valueQuantity>
      <value value="3.0"/>
      <unit value="%"/>
      <system value="http://unitsofmeasure.org" />
      <code value=""/>
    </valueQuantity>
    
    <effectiveDateTime value="2009-03-26"/>
    <status value="final"/>
    <subject>
      <reference value="Patient/629528"/>
    </subject>
    <referenceRange>
      <meaning>
        <coding>
         <system value="http://hl7.org/fhir/referencerange-meaning"/>
         <code value="normal"/>
         <display value="Normal Range"/>
       </coding>
       <text value="Normal Range"/>
      </meaning>
      <low>
        <value value="0.0"/>
        <unit value="%"/>
        <code value="%"/>
        <system value="http://unitsofmeasure.org"/>
      </low>
      <high>
        <value value="7.0"/>
        <unit value="%"/>
        <code value="%"/>
        <system value="http://unitsofmeasure.org"/>
      </high>
    </referenceRange>
    
  </Observation>
  
  </resource>
  <request>
    <method value="POST"/>
    <url value="Observation/1873-lab"/>
  </request>
</entry>
<entry>
  <resource>
    
    
  <Observation>
  <id value="1874-lab"/>
    <text>
      <status value="generated"/>
      <div xmlns="http://www.w3.org/1999/xhtml">2009-03-26: Platelet # Bld = 380 10*3/uL</div>
    </text>
    <code>
      <coding>
        <system value="http://loinc.org"/>
        <code value="26515-7"/>
        <display value="Platelet # Bld"/>
      </coding>
      <text value="Platelet # Bld"/>
    </code>
    <valueQuantity>
      <value value="380.0"/>
      <unit value="10*3/uL"/>
      <system value="http://unitsofmeasure.org" />
      <code value=""/>
    </valueQuantity>
    
    <effectiveDateTime value="2009-03-26"/>
    <status value="final"/>
    <subject>
      <reference value="Patient/629528"/>
    </subject>
    <referenceRange>
      <meaning>
        <coding>
         <system value="http://hl7.org/fhir/referencerange-meaning"/>
         <code value="normal"/>
         <display value="Normal Range"/>
       </coding>
       <text value="Normal Range"/>
      </meaning>
      <low>
        <value value="150.0"/>
        <unit value="10*3/uL"/>
        <code value="10*3/uL"/>
        <system value="http://unitsofmeasure.org"/>
      </low>
      <high>
        <value value="450.0"/>
        <unit value="10*3/uL"/>
        <code value="10*3/uL"/>
        <system value="http://unitsofmeasure.org"/>
      </high>
    </referenceRange>
    
  </Observation>
  
  </resource>
  <request>
    <method value="POST"/>
    <url value="Observation/1874-lab"/>
  </request>
</entry>
<entry>
  <resource>
    
    
  <Observation>
  <id value="1875-lab"/>
    <text>
      <status value="generated"/>
      <div xmlns="http://www.w3.org/1999/xhtml">2009-03-26: MCV RBC = 93.3 fL</div>
    </text>
    <code>
      <coding>
        <system value="http://loinc.org"/>
        <code value="30428-7"/>
        <display value="MCV RBC"/>
      </coding>
      <text value="MCV RBC"/>
    </code>
    <valueQuantity>
      <value value="93.3"/>
      <unit value="fL"/>
      <system value="http://unitsofmeasure.org" />
      <code value=""/>
    </valueQuantity>
    
    <effectiveDateTime value="2009-03-26"/>
    <status value="final"/>
    <subject>
      <reference value="Patient/629528"/>
    </subject>
    <referenceRange>
      <meaning>
        <coding>
         <system value="http://hl7.org/fhir/referencerange-meaning"/>
         <code value="normal"/>
         <display value="Normal Range"/>
       </coding>
       <text value="Normal Range"/>
      </meaning>
      <low>
        <value value="78.0"/>
        <unit value="fL"/>
        <code value="fL"/>
        <system value="http://unitsofmeasure.org"/>
      </low>
      <high>
        <value value="100.0"/>
        <unit value="fL"/>
        <code value="fL"/>
        <system value="http://unitsofmeasure.org"/>
      </high>
    </referenceRange>
    
  </Observation>
  
  </resource>
  <request>
    <method value="POST"/>
    <url value="Observation/1875-lab"/>
  </request>
</entry>
<entry>
  <resource>
    
    
  <Observation>
  <id value="1876-lab"/>
    <text>
      <status value="generated"/>
      <div xmlns="http://www.w3.org/1999/xhtml">2009-03-26: MCH RBC Qn Auto = 30.8 pg</div>
    </text>
    <code>
      <coding>
        <system value="http://loinc.org"/>
        <code value="785-6"/>
        <display value="MCH RBC Qn Auto"/>
      </coding>
      <text value="MCH RBC Qn Auto"/>
    </code>
    <valueQuantity>
      <value value="30.8"/>
      <unit value="pg"/>
      <system value="http://unitsofmeasure.org" />
      <code value=""/>
    </valueQuantity>
    
    <effectiveDateTime value="2009-03-26"/>
    <status value="final"/>
    <subject>
      <reference value="Patient/629528"/>
    </subject>
    <referenceRange>
      <meaning>
        <coding>
         <system value="http://hl7.org/fhir/referencerange-meaning"/>
         <code value="normal"/>
         <display value="Normal Range"/>
       </coding>
       <text value="Normal Range"/>
      </meaning>
      <low>
        <value value="27.0"/>
        <unit value="pg"/>
        <code value="pg"/>
        <system value="http://unitsofmeasure.org"/>
      </low>
      <high>
        <value value="31.0"/>
        <unit value="pg"/>
        <code value="pg"/>
        <system value="http://unitsofmeasure.org"/>
      </high>
    </referenceRange>
    
  </Observation>
  
  </resource>
  <request>
    <method value="POST"/>
    <url value="Observation/1876-lab"/>
  </request>
</entry>
<entry>
  <resource>
    
    
  <Observation>
  <id value="1877-lab"/>
    <text>
      <status value="generated"/>
      <div xmlns="http://www.w3.org/1999/xhtml">2009-03-26: MCHC RBC Auto-mCnc = 33 g/dL</div>
    </text>
    <code>
      <coding>
        <system value="http://loinc.org"/>
        <code value="786-4"/>
        <display value="MCHC RBC Auto-mCnc"/>
      </coding>
      <text value="MCHC RBC Auto-mCnc"/>
    </code>
    <valueQuantity>
      <value value="33.0"/>
      <unit value="g/dL"/>
      <system value="http://unitsofmeasure.org" />
      <code value=""/>
    </valueQuantity>
    
    <effectiveDateTime value="2009-03-26"/>
    <status value="final"/>
    <subject>
      <reference value="Patient/629528"/>
    </subject>
    <referenceRange>
      <meaning>
        <coding>
         <system value="http://hl7.org/fhir/referencerange-meaning"/>
         <code value="normal"/>
         <display value="Normal Range"/>
       </coding>
       <text value="Normal Range"/>
      </meaning>
      <low>
        <value value="32.0"/>
        <unit value="g/dL"/>
        <code value="g/dL"/>
        <system value="http://unitsofmeasure.org"/>
      </low>
      <high>
        <value value="36.0"/>
        <unit value="g/dL"/>
        <code value="g/dL"/>
        <system value="http://unitsofmeasure.org"/>
      </high>
    </referenceRange>
    
  </Observation>
  
  </resource>
  <request>
    <method value="POST"/>
    <url value="Observation/1877-lab"/>
  </request>
</entry>
<entry>
  <resource>
    
    
  <Observation>
  <id value="1878-lab"/>
    <text>
      <status value="generated"/>
      <div xmlns="http://www.w3.org/1999/xhtml">2009-03-26: ALP SerPl-cCnc = 64 U/L</div>
    </text>
    <code>
      <coding>
        <system value="http://loinc.org"/>
        <code value="6768-6"/>
        <display value="ALP SerPl-cCnc"/>
      </coding>
      <text value="ALP SerPl-cCnc"/>
    </code>
    <valueQuantity>
      <value value="64.0"/>
      <unit value="U/L"/>
      <system value="http://unitsofmeasure.org" />
      <code value=""/>
    </valueQuantity>
    
    <effectiveDateTime value="2009-03-26"/>
    <status value="final"/>
    <subject>
      <reference value="Patient/629528"/>
    </subject>
    <referenceRange>
      <meaning>
        <coding>
         <system value="http://hl7.org/fhir/referencerange-meaning"/>
         <code value="normal"/>
         <display value="Normal Range"/>
       </coding>
       <text value="Normal Range"/>
      </meaning>
      <low>
        <value value="48.0"/>
        <unit value="U/L"/>
        <code value="U/L"/>
        <system value="http://unitsofmeasure.org"/>
      </low>
      <high>
        <value value="138.0"/>
        <unit value="U/L"/>
        <code value="U/L"/>
        <system value="http://unitsofmeasure.org"/>
      </high>
    </referenceRange>
    
  </Observation>
  
  </resource>
  <request>
    <method value="POST"/>
    <url value="Observation/1878-lab"/>
  </request>
</entry>
<entry>
  <resource>
    
    
  <Observation>
  <id value="1879-lab"/>
    <text>
      <status value="generated"/>
      <div xmlns="http://www.w3.org/1999/xhtml">2009-03-26: Albumin SerPl-mCnc = 4.3 g/dL</div>
    </text>
    <code>
      <coding>
        <system value="http://loinc.org"/>
        <code value="1751-7"/>
        <display value="Albumin SerPl-mCnc"/>
      </coding>
      <text value="Albumin SerPl-mCnc"/>
    </code>
    <valueQuantity>
      <value value="4.3"/>
      <unit value="g/dL"/>
      <system value="http://unitsofmeasure.org" />
      <code value=""/>
    </valueQuantity>
    
    <effectiveDateTime value="2009-03-26"/>
    <status value="final"/>
    <subject>
      <reference value="Patient/629528"/>
    </subject>
    <referenceRange>
      <meaning>
        <coding>
         <system value="http://hl7.org/fhir/referencerange-meaning"/>
         <code value="normal"/>
         <display value="Normal Range"/>
       </coding>
       <text value="Normal Range"/>
      </meaning>
      <low>
        <value value="3.2"/>
        <unit value="g/dL"/>
        <code value="g/dL"/>
        <system value="http://unitsofmeasure.org"/>
      </low>
      <high>
        <value value="5.2"/>
        <unit value="g/dL"/>
        <code value="g/dL"/>
        <system value="http://unitsofmeasure.org"/>
      </high>
    </referenceRange>
    
  </Observation>
  
  </resource>
  <request>
    <method value="POST"/>
    <url value="Observation/1879-lab"/>
  </request>
</entry>
<entry>
  <resource>
    
    
  <Observation>
  <id value="1880-lab"/>
    <text>
      <status value="generated"/>
      <div xmlns="http://www.w3.org/1999/xhtml">2009-03-26: Calcium SerPl-mCnc = 9.4 mg/dL</div>
    </text>
    <code>
      <coding>
        <system value="http://loinc.org"/>
        <code value="17861-6"/>
        <display value="Calcium SerPl-mCnc"/>
      </coding>
      <text value="Calcium SerPl-mCnc"/>
    </code>
    <valueQuantity>
      <value value="9.4"/>
      <unit value="mg/dL"/>
      <system value="http://unitsofmeasure.org" />
      <code value=""/>
    </valueQuantity>
    
    <effectiveDateTime value="2009-03-26"/>
    <status value="final"/>
    <subject>
      <reference value="Patient/629528"/>
    </subject>
    <referenceRange>
      <meaning>
        <coding>
         <system value="http://hl7.org/fhir/referencerange-meaning"/>
         <code value="normal"/>
         <display value="Normal Range"/>
       </coding>
       <text value="Normal Range"/>
      </meaning>
      <low>
        <value value="8.4"/>
        <unit value="mg/dL"/>
        <code value="mg/dL"/>
        <system value="http://unitsofmeasure.org"/>
      </low>
      <high>
        <value value="10.4"/>
        <unit value="mg/dL"/>
        <code value="mg/dL"/>
        <system value="http://unitsofmeasure.org"/>
      </high>
    </referenceRange>
    
  </Observation>
  
  </resource>
  <request>
    <method value="POST"/>
    <url value="Observation/1880-lab"/>
  </request>
</entry>
<entry>
  <resource>
    
    
  <Observation>
  <id value="1881-lab"/>
    <text>
      <status value="generated"/>
      <div xmlns="http://www.w3.org/1999/xhtml">2009-03-26: RDW RBC-Rto = 12.7 %</div>
    </text>
    <code>
      <coding>
        <system value="http://loinc.org"/>
        <code value="30385-9"/>
        <display value="RDW RBC-Rto"/>
      </coding>
      <text value="RDW RBC-Rto"/>
    </code>
    <valueQuantity>
      <value value="12.7"/>
      <unit value="%"/>
      <system value="http://unitsofmeasure.org" />
      <code value=""/>
    </valueQuantity>
    
    <effectiveDateTime value="2009-03-26"/>
    <status value="final"/>
    <subject>
      <reference value="Patient/629528"/>
    </subject>
    <referenceRange>
      <meaning>
        <coding>
         <system value="http://hl7.org/fhir/referencerange-meaning"/>
         <code value="normal"/>
         <display value="Normal Range"/>
       </coding>
       <text value="Normal Range"/>
      </meaning>
      <low>
        <value value="11.5"/>
        <unit value="%"/>
        <code value="%"/>
        <system value="http://unitsofmeasure.org"/>
      </low>
      <high>
        <value value="14.0"/>
        <unit value="%"/>
        <code value="%"/>
        <system value="http://unitsofmeasure.org"/>
      </high>
    </referenceRange>
    
  </Observation>
  
  </resource>
  <request>
    <method value="POST"/>
    <url value="Observation/1881-lab"/>
  </request>
</entry>
<entry>
  <resource>
    
    
  <Observation>
  <id value="1882-lab"/>
    <text>
      <status value="generated"/>
      <div xmlns="http://www.w3.org/1999/xhtml">2009-03-26: Prot SerPl-mCnc = 7.8 g/dL</div>
    </text>
    <code>
      <coding>
        <system value="http://loinc.org"/>
        <code value="2885-2"/>
        <display value="Prot SerPl-mCnc"/>
      </coding>
      <text value="Prot SerPl-mCnc"/>
    </code>
    <valueQuantity>
      <value value="7.8"/>
      <unit value="g/dL"/>
      <system value="http://unitsofmeasure.org" />
      <code value=""/>
    </valueQuantity>
    
    <effectiveDateTime value="2009-03-26"/>
    <status value="final"/>
    <subject>
      <reference value="Patient/629528"/>
    </subject>
    <referenceRange>
      <meaning>
        <coding>
         <system value="http://hl7.org/fhir/referencerange-meaning"/>
         <code value="normal"/>
         <display value="Normal Range"/>
       </coding>
       <text value="Normal Range"/>
      </meaning>
      <low>
        <value value="6.0"/>
        <unit value="g/dL"/>
        <code value="g/dL"/>
        <system value="http://unitsofmeasure.org"/>
      </low>
      <high>
        <value value="8.3"/>
        <unit value="g/dL"/>
        <code value="g/dL"/>
        <system value="http://unitsofmeasure.org"/>
      </high>
    </referenceRange>
    
  </Observation>
  
  </resource>
  <request>
    <method value="POST"/>
    <url value="Observation/1882-lab"/>
  </request>
</entry>
<entry>
  <resource>
    
    
  <Observation>
  <id value="1883-lab"/>
    <text>
      <status value="generated"/>
      <div xmlns="http://www.w3.org/1999/xhtml">2009-03-26: HDLc SerPl-mCnc = 53 mg/dL</div>
    </text>
    <code>
      <coding>
        <system value="http://loinc.org"/>
        <code value="2085-9"/>
        <display value="HDLc SerPl-mCnc"/>
      </coding>
      <text value="HDLc SerPl-mCnc"/>
    </code>
    <valueQuantity>
      <value value="53.0"/>
      <unit value="mg/dL"/>
      <system value="http://unitsofmeasure.org" />
      <code value=""/>
    </valueQuantity>
    
    <effectiveDateTime value="2009-03-26"/>
    <status value="final"/>
    <subject>
      <reference value="Patient/629528"/>
    </subject>
    <referenceRange>
      <meaning>
        <coding>
         <system value="http://hl7.org/fhir/referencerange-meaning"/>
         <code value="normal"/>
         <display value="Normal Range"/>
       </coding>
       <text value="Normal Range"/>
      </meaning>
      <low>
        <value value="0.0"/>
        <unit value="mg/dL"/>
        <code value="mg/dL"/>
        <system value="http://unitsofmeasure.org"/>
      </low>
      <high>
        <value value="0.0"/>
        <unit value="mg/dL"/>
        <code value="mg/dL"/>
        <system value="http://unitsofmeasure.org"/>
      </high>
    </referenceRange>
    
  </Observation>
  
  </resource>
  <request>
    <method value="POST"/>
    <url value="Observation/1883-lab"/>
  </request>
</entry>
<entry>
  <resource>
    
    
  <Observation>
  <id value="1884-lab"/>
    <text>
      <status value="generated"/>
      <div xmlns="http://www.w3.org/1999/xhtml">2009-03-26: LDLc SerPl Calc-mCnc = 124 mg/dL</div>
    </text>
    <code>
      <coding>
        <system value="http://loinc.org"/>
        <code value="13457-7"/>
        <display value="LDLc SerPl Calc-mCnc"/>
      </coding>
      <text value="LDLc SerPl Calc-mCnc"/>
    </code>
    <valueQuantity>
      <value value="124.0"/>
      <unit value="mg/dL"/>
      <system value="http://unitsofmeasure.org" />
      <code value=""/>
    </valueQuantity>
    
    <effectiveDateTime value="2009-03-26"/>
    <status value="final"/>
    <subject>
      <reference value="Patient/629528"/>
    </subject>
    <referenceRange>
      <meaning>
        <coding>
         <system value="http://hl7.org/fhir/referencerange-meaning"/>
         <code value="normal"/>
         <display value="Normal Range"/>
       </coding>
       <text value="Normal Range"/>
      </meaning>
      <low>
        <value value="0.0"/>
        <unit value="mg/dL"/>
        <code value="mg/dL"/>
        <system value="http://unitsofmeasure.org"/>
      </low>
      <high>
        <value value="0.0"/>
        <unit value="mg/dL"/>
        <code value="mg/dL"/>
        <system value="http://unitsofmeasure.org"/>
      </high>
    </referenceRange>
    
  </Observation>
  
  </resource>
  <request>
    <method value="POST"/>
    <url value="Observation/1884-lab"/>
  </request>
</entry>
<entry>
  <resource>
    
    
  <Observation>
  <id value="1885-lab"/>
    <text>
      <status value="generated"/>
      <div xmlns="http://www.w3.org/1999/xhtml">2009-03-26: CRP SerPl HS-mCnc = 1.1 mg/L</div>
    </text>
    <code>
      <coding>
        <system value="http://loinc.org"/>
        <code value="30522-7"/>
        <display value="CRP SerPl HS-mCnc"/>
      </coding>
      <text value="CRP SerPl HS-mCnc"/>
    </code>
    <valueQuantity>
      <value value="1.1"/>
      <unit value="mg/L"/>
      <system value="http://unitsofmeasure.org" />
      <code value=""/>
    </valueQuantity>
    
    <effectiveDateTime value="2009-03-26"/>
    <status value="final"/>
    <subject>
      <reference value="Patient/629528"/>
    </subject>
    <referenceRange>
      <meaning>
        <coding>
         <system value="http://hl7.org/fhir/referencerange-meaning"/>
         <code value="normal"/>
         <display value="Normal Range"/>
       </coding>
       <text value="Normal Range"/>
      </meaning>
      <low>
        <value value="0.0"/>
        <unit value="mg/L"/>
        <code value="mg/L"/>
        <system value="http://unitsofmeasure.org"/>
      </low>
      <high>
        <value value="3.0"/>
        <unit value="mg/L"/>
        <code value="mg/L"/>
        <system value="http://unitsofmeasure.org"/>
      </high>
    </referenceRange>
    
  </Observation>
  
  </resource>
  <request>
    <method value="POST"/>
    <url value="Observation/1885-lab"/>
  </request>
</entry>
<entry>
  <resource>
    
    
<MedicationOrder>
  <id value="1"/>
  <text>
    <status value="generated"/>
    <div xmlns="http://www.w3.org/1999/xhtml">
      Yasmin 28 Day Pack (rxnorm: 748857)
    </div>
  </text>

  <status value="active" />
  <patient>
    <reference value="Patient/629528"/>
  </patient>

  <medicationCodeableConcept>
    <coding>
        <system value="http://www.nlm.nih.gov/research/umls/rxnorm"/>
        <code value="748857"/>
        <display value="Yasmin 28 Day Pack"/>
    </coding>
    <text value="Yasmin 28 Day Pack"/>
  </medicationCodeableConcept>

  <dosageInstruction>
    <timing>
      <repeat>
        <boundsPeriod>
          <start value="2006-12-03"/>
        </boundsPeriod>
        <frequency value="1"/>
        <period value="1"/>
        <periodUnits value="d"/>
      </repeat>
      
    </timing>
    <doseQuantity>
      <value value="1"/>
      <unit value="{tablet}"/>
      <system value="http://unitsofmeasure.org"/>
      <code value="{tablet}"/>
    </doseQuantity>
    
    <text value="1 daily"/>
  </dosageInstruction>
  <dispenseRequest>
     <numberOfRepeatsAllowed value="1"/>
     
     <quantity>
        <value value="28"/>
        <unit value="{tablet}"/>
        <system value="http://unitsofmeasure.org"/>
        <code value="{tablet}"/>
     </quantity>
     
     <expectedSupplyDuration>
        <value value="28"/>
        <unit value="days"/>
        <system value="http://unitsofmeasure.org"/>
        <code value="d"/>
     </expectedSupplyDuration>
     
  </dispenseRequest>
  
</MedicationOrder>

  </resource>
  <request>
    <method value="POST"/>
    <url value="MedicationOrder/1"/>
  </request>
</entry>
<entry>
  <resource>
    
    
<MedicationDispense>
  <id value="630"/>
  <!--  insert contents here  -->
   <text>
    <status value="generated"/>
    <div xmlns="http://www.w3.org/1999/xhtml">
      Dispensed 63 tablets = 63 day supply of Yasmin 28 Day Pack
    </div>
  </text>

  <status value="completed"/>

  <patient>
    <reference value="Patient/629528"/>
  </patient>

  <authorizingPrescription>
    <reference value="MedicationOrder/1"/>
  </authorizingPrescription>

  <quantity>
      <value value="63"/>
      <unit value="tablets"/>
      <system value="http://unitsofmeasure.org"/>
      <code value="{tablets}"/>
  </quantity>

  <daysSupply>
      <value value="63" />
      <unit value="days" />
      <system value="http://unitsofmeasure.org" />
      <code value="d" />
  </daysSupply>

  <medicationCodeableConcept>
    <coding>
        <system value="http://www.nlm.nih.gov/research/umls/rxnorm"/>
        <code value="748857"/>
        <display value="Yasmin 28 Day Pack"/>
    </coding>
    <text value="Yasmin 28 Day Pack"/>
  </medicationCodeableConcept>

  <whenHandedOver value="2007-06-17"/>

</MedicationDispense>

  </resource>
  <request>
    <method value="POST"/>
    <url value="MedicationDispense/630"/>
  </request>
</entry>
<entry>
  <resource>
    
    
<MedicationDispense>
  <id value="628"/>
  <!--  insert contents here  -->
   <text>
    <status value="generated"/>
    <div xmlns="http://www.w3.org/1999/xhtml">
      Dispensed 63 tablets = 63 day supply of Yasmin 28 Day Pack
    </div>
  </text>

  <status value="completed"/>

  <patient>
    <reference value="Patient/629528"/>
  </patient>

  <authorizingPrescription>
    <reference value="MedicationOrder/1"/>
  </authorizingPrescription>

  <quantity>
      <value value="63"/>
      <unit value="tablets"/>
      <system value="http://unitsofmeasure.org"/>
      <code value="{tablets}"/>
  </quantity>

  <daysSupply>
      <value value="63" />
      <unit value="days" />
      <system value="http://unitsofmeasure.org" />
      <code value="d" />
  </daysSupply>

  <medicationCodeableConcept>
    <coding>
        <system value="http://www.nlm.nih.gov/research/umls/rxnorm"/>
        <code value="748857"/>
        <display value="Yasmin 28 Day Pack"/>
    </coding>
    <text value="Yasmin 28 Day Pack"/>
  </medicationCodeableConcept>

  <whenHandedOver value="2007-01-31"/>

</MedicationDispense>

  </resource>
  <request>
    <method value="POST"/>
    <url value="MedicationDispense/628"/>
  </request>
</entry>
<entry>
  <resource>
    
    
<MedicationDispense>
  <id value="629"/>
  <!--  insert contents here  -->
   <text>
    <status value="generated"/>
    <div xmlns="http://www.w3.org/1999/xhtml">
      Dispensed 63 tablets = 63 day supply of Yasmin 28 Day Pack
    </div>
  </text>

  <status value="completed"/>

  <patient>
    <reference value="Patient/629528"/>
  </patient>

  <authorizingPrescription>
    <reference value="MedicationOrder/1"/>
  </authorizingPrescription>

  <quantity>
      <value value="63"/>
      <unit value="tablets"/>
      <system value="http://unitsofmeasure.org"/>
      <code value="{tablets}"/>
  </quantity>

  <daysSupply>
      <value value="63" />
      <unit value="days" />
      <system value="http://unitsofmeasure.org" />
      <code value="d" />
  </daysSupply>

  <medicationCodeableConcept>
    <coding>
        <system value="http://www.nlm.nih.gov/research/umls/rxnorm"/>
        <code value="748857"/>
        <display value="Yasmin 28 Day Pack"/>
    </coding>
    <text value="Yasmin 28 Day Pack"/>
  </medicationCodeableConcept>

  <whenHandedOver value="2007-04-17"/>

</MedicationDispense>

  </resource>
  <request>
    <method value="POST"/>
    <url value="MedicationDispense/629"/>
  </request>
</entry>
<entry>
  <resource>
    
    
<MedicationDispense>
  <id value="632"/>
  <!--  insert contents here  -->
   <text>
    <status value="generated"/>
    <div xmlns="http://www.w3.org/1999/xhtml">
      Dispensed 63 tablets = 63 day supply of Yasmin 28 Day Pack
    </div>
  </text>

  <status value="completed"/>

  <patient>
    <reference value="Patient/629528"/>
  </patient>

  <authorizingPrescription>
    <reference value="MedicationOrder/1"/>
  </authorizingPrescription>

  <quantity>
      <value value="63"/>
      <unit value="tablets"/>
      <system value="http://unitsofmeasure.org"/>
      <code value="{tablets}"/>
  </quantity>

  <daysSupply>
      <value value="63" />
      <unit value="days" />
      <system value="http://unitsofmeasure.org" />
      <code value="d" />
  </daysSupply>

  <medicationCodeableConcept>
    <coding>
        <system value="http://www.nlm.nih.gov/research/umls/rxnorm"/>
        <code value="748857"/>
        <display value="Yasmin 28 Day Pack"/>
    </coding>
    <text value="Yasmin 28 Day Pack"/>
  </medicationCodeableConcept>

  <whenHandedOver value="2007-11-05"/>

</MedicationDispense>

  </resource>
  <request>
    <method value="POST"/>
    <url value="MedicationDispense/632"/>
  </request>
</entry>
<entry>
  <resource>
    
    
<MedicationDispense>
  <id value="631"/>
  <!--  insert contents here  -->
   <text>
    <status value="generated"/>
    <div xmlns="http://www.w3.org/1999/xhtml">
      Dispensed 63 tablets = 63 day supply of Yasmin 28 Day Pack
    </div>
  </text>

  <status value="completed"/>

  <patient>
    <reference value="Patient/629528"/>
  </patient>

  <authorizingPrescription>
    <reference value="MedicationOrder/1"/>
  </authorizingPrescription>

  <quantity>
      <value value="63"/>
      <unit value="tablets"/>
      <system value="http://unitsofmeasure.org"/>
      <code value="{tablets}"/>
  </quantity>

  <daysSupply>
      <value value="63" />
      <unit value="days" />
      <system value="http://unitsofmeasure.org" />
      <code value="d" />
  </daysSupply>

  <medicationCodeableConcept>
    <coding>
        <system value="http://www.nlm.nih.gov/research/umls/rxnorm"/>
        <code value="748857"/>
        <display value="Yasmin 28 Day Pack"/>
    </coding>
    <text value="Yasmin 28 Day Pack"/>
  </medicationCodeableConcept>

  <whenHandedOver value="2007-09-03"/>

</MedicationDispense>

  </resource>
  <request>
    <method value="POST"/>
    <url value="MedicationDispense/631"/>
  </request>
</entry>
<entry>
  <resource>
    
    
<MedicationDispense>
  <id value="627"/>
  <!--  insert contents here  -->
   <text>
    <status value="generated"/>
    <div xmlns="http://www.w3.org/1999/xhtml">
      Dispensed 63 tablets = 63 day supply of Yasmin 28 Day Pack
    </div>
  </text>

  <status value="completed"/>

  <patient>
    <reference value="Patient/629528"/>
  </patient>

  <authorizingPrescription>
    <reference value="MedicationOrder/1"/>
  </authorizingPrescription>

  <quantity>
      <value value="63"/>
      <unit value="tablets"/>
      <system value="http://unitsofmeasure.org"/>
      <code value="{tablets}"/>
  </quantity>

  <daysSupply>
      <value value="63" />
      <unit value="days" />
      <system value="http://unitsofmeasure.org" />
      <code value="d" />
  </daysSupply>

  <medicationCodeableConcept>
    <coding>
        <system value="http://www.nlm.nih.gov/research/umls/rxnorm"/>
        <code value="748857"/>
        <display value="Yasmin 28 Day Pack"/>
    </coding>
    <text value="Yasmin 28 Day Pack"/>
  </medicationCodeableConcept>

  <whenHandedOver value="2006-12-03"/>

</MedicationDispense>

  </resource>
  <request>
    <method value="POST"/>
    <url value="MedicationDispense/627"/>
  </request>
</entry>
<entry>
  <resource>
    
    
<MedicationOrder>
  <id value="2"/>
  <text>
    <status value="generated"/>
    <div xmlns="http://www.w3.org/1999/xhtml">
      Escitalopram 10 MG Oral Tablet [Lexapro] (rxnorm: 352272)
    </div>
  </text>

  <status value="active" />
  <patient>
    <reference value="Patient/629528"/>
  </patient>

  <medicationCodeableConcept>
    <coding>
        <system value="http://www.nlm.nih.gov/research/umls/rxnorm"/>
        <code value="352272"/>
        <display value="Escitalopram 10 MG Oral Tablet [Lexapro]"/>
    </coding>
    <text value="Escitalopram 10 MG Oral Tablet [Lexapro]"/>
  </medicationCodeableConcept>

  <dosageInstruction>
    <timing>
      <repeat>
        <boundsPeriod>
          <start value="2006-12-14"/>
        </boundsPeriod>
        <frequency value="1"/>
        <period value="1"/>
        <periodUnits value="d"/>
      </repeat>
      
    </timing>
    <doseQuantity>
      <value value="1"/>
      <unit value="{tablet}"/>
      <system value="http://unitsofmeasure.org"/>
      <code value="{tablet}"/>
    </doseQuantity>
    
    <text value="1 daily"/>
  </dosageInstruction>
  <dispenseRequest>
     <numberOfRepeatsAllowed value="1"/>
     
     <quantity>
        <value value="90"/>
        <unit value="{tablet}"/>
        <system value="http://unitsofmeasure.org"/>
        <code value="{tablet}"/>
     </quantity>
     
     <expectedSupplyDuration>
        <value value="90"/>
        <unit value="days"/>
        <system value="http://unitsofmeasure.org"/>
        <code value="d"/>
     </expectedSupplyDuration>
     
  </dispenseRequest>
  
</MedicationOrder>

  </resource>
  <request>
    <method value="POST"/>
    <url value="MedicationOrder/2"/>
  </request>
</entry>
<entry>
  <resource>
    
    
<MedicationDispense>
  <id value="623"/>
  <!--  insert contents here  -->
   <text>
    <status value="generated"/>
    <div xmlns="http://www.w3.org/1999/xhtml">
      Dispensed 90 tablets = 90 day supply of Escitalopram 10 MG Oral Tablet [Lexapro]
    </div>
  </text>

  <status value="completed"/>

  <patient>
    <reference value="Patient/629528"/>
  </patient>

  <authorizingPrescription>
    <reference value="MedicationOrder/2"/>
  </authorizingPrescription>

  <quantity>
      <value value="90"/>
      <unit value="tablets"/>
      <system value="http://unitsofmeasure.org"/>
      <code value="{tablets}"/>
  </quantity>

  <daysSupply>
      <value value="90" />
      <unit value="days" />
      <system value="http://unitsofmeasure.org" />
      <code value="d" />
  </daysSupply>

  <medicationCodeableConcept>
    <coding>
        <system value="http://www.nlm.nih.gov/research/umls/rxnorm"/>
        <code value="352272"/>
        <display value="Escitalopram 10 MG Oral Tablet [Lexapro]"/>
    </coding>
    <text value="Escitalopram 10 MG Oral Tablet [Lexapro]"/>
  </medicationCodeableConcept>

  <whenHandedOver value="2006-12-14"/>

</MedicationDispense>

  </resource>
  <request>
    <method value="POST"/>
    <url value="MedicationDispense/623"/>
  </request>
</entry>
<entry>
  <resource>
    
    
<MedicationDispense>
  <id value="624"/>
  <!--  insert contents here  -->
   <text>
    <status value="generated"/>
    <div xmlns="http://www.w3.org/1999/xhtml">
      Dispensed 90 tablets = 90 day supply of Escitalopram 10 MG Oral Tablet [Lexapro]
    </div>
  </text>

  <status value="completed"/>

  <patient>
    <reference value="Patient/629528"/>
  </patient>

  <authorizingPrescription>
    <reference value="MedicationOrder/2"/>
  </authorizingPrescription>

  <quantity>
      <value value="90"/>
      <unit value="tablets"/>
      <system value="http://unitsofmeasure.org"/>
      <code value="{tablets}"/>
  </quantity>

  <daysSupply>
      <value value="90" />
      <unit value="days" />
      <system value="http://unitsofmeasure.org" />
      <code value="d" />
  </daysSupply>

  <medicationCodeableConcept>
    <coding>
        <system value="http://www.nlm.nih.gov/research/umls/rxnorm"/>
        <code value="352272"/>
        <display value="Escitalopram 10 MG Oral Tablet [Lexapro]"/>
    </coding>
    <text value="Escitalopram 10 MG Oral Tablet [Lexapro]"/>
  </medicationCodeableConcept>

  <whenHandedOver value="2007-03-25"/>

</MedicationDispense>

  </resource>
  <request>
    <method value="POST"/>
    <url value="MedicationDispense/624"/>
  </request>
</entry>
<entry>
  <resource>
    
    
<MedicationDispense>
  <id value="626"/>
  <!--  insert contents here  -->
   <text>
    <status value="generated"/>
    <div xmlns="http://www.w3.org/1999/xhtml">
      Dispensed 90 tablets = 90 day supply of Escitalopram 10 MG Oral Tablet [Lexapro]
    </div>
  </text>

  <status value="completed"/>

  <patient>
    <reference value="Patient/629528"/>
  </patient>

  <authorizingPrescription>
    <reference value="MedicationOrder/2"/>
  </authorizingPrescription>

  <quantity>
      <value value="90"/>
      <unit value="tablets"/>
      <system value="http://unitsofmeasure.org"/>
      <code value="{tablets}"/>
  </quantity>

  <daysSupply>
      <value value="90" />
      <unit value="days" />
      <system value="http://unitsofmeasure.org" />
      <code value="d" />
  </daysSupply>

  <medicationCodeableConcept>
    <coding>
        <system value="http://www.nlm.nih.gov/research/umls/rxnorm"/>
        <code value="352272"/>
        <display value="Escitalopram 10 MG Oral Tablet [Lexapro]"/>
    </coding>
    <text value="Escitalopram 10 MG Oral Tablet [Lexapro]"/>
  </medicationCodeableConcept>

  <whenHandedOver value="2007-09-25"/>

</MedicationDispense>

  </resource>
  <request>
    <method value="POST"/>
    <url value="MedicationDispense/626"/>
  </request>
</entry>
<entry>
  <resource>
    
    
<MedicationDispense>
  <id value="625"/>
  <!--  insert contents here  -->
   <text>
    <status value="generated"/>
    <div xmlns="http://www.w3.org/1999/xhtml">
      Dispensed 90 tablets = 90 day supply of Escitalopram 10 MG Oral Tablet [Lexapro]
    </div>
  </text>

  <status value="completed"/>

  <patient>
    <reference value="Patient/629528"/>
  </patient>

  <authorizingPrescription>
    <reference value="MedicationOrder/2"/>
  </authorizingPrescription>

  <quantity>
      <value value="90"/>
      <unit value="tablets"/>
      <system value="http://unitsofmeasure.org"/>
      <code value="{tablets}"/>
  </quantity>

  <daysSupply>
      <value value="90" />
      <unit value="days" />
      <system value="http://unitsofmeasure.org" />
      <code value="d" />
  </daysSupply>

  <medicationCodeableConcept>
    <coding>
        <system value="http://www.nlm.nih.gov/research/umls/rxnorm"/>
        <code value="352272"/>
        <display value="Escitalopram 10 MG Oral Tablet [Lexapro]"/>
    </coding>
    <text value="Escitalopram 10 MG Oral Tablet [Lexapro]"/>
  </medicationCodeableConcept>

  <whenHandedOver value="2007-06-14"/>

</MedicationDispense>

  </resource>
  <request>
    <method value="POST"/>
    <url value="MedicationDispense/625"/>
  </request>
</entry>
  <entry>
  <resource>
    
    
  <Condition>
  <id value="336"/>
    <text>
     <status value="generated"/>
     <div xmlns="http://www.w3.org/1999/xhtml">Depressive disorder</div>   
   </text>
    <patient>
      <reference value="Patient/629528"/>
    </patient>
    <code> 
      <coding>
        <system value="http://snomed.info/sct"/>
        <code value="35489007"/>
        <display value="Depressive disorder"/>
      </coding>
      <text value="Depressive disorder"/>
    </code>
   <clinicalStatus value="confirmed"/>
   <onsetDateTime value="2007-02-06"/>
   
  </Condition>
  
  </resource>
  <request>
    <method value="POST"/>
    <url value="Condition/336"/>
  </request>
</entry>
  <entry>
  <resource>
    
    
  <Condition>
  <id value="337"/>
    <text>
     <status value="generated"/>
     <div xmlns="http://www.w3.org/1999/xhtml">Cervical intraepithelial neoplasia grade 1</div>   
   </text>
    <patient>
      <reference value="Patient/629528"/>
    </patient>
    <code> 
      <coding>
        <system value="http://snomed.info/sct"/>
        <code value="285836003"/>
        <display value="Cervical intraepithelial neoplasia grade 1"/>
      </coding>
      <text value="Cervical intraepithelial neoplasia grade 1"/>
    </code>
   <clinicalStatus value="confirmed"/>
   <onsetDateTime value="2007-11-20"/>
   
  </Condition>
  
  </resource>
  <request>
    <method value="POST"/>
    <url value="Condition/337"/>
  </request>
</entry>
  <entry>
  <resource>
    
    
  <Condition>
  <id value="338"/>
    <text>
     <status value="generated"/>
     <div xmlns="http://www.w3.org/1999/xhtml">Cervicitis and endocervicitis</div>   
   </text>
    <patient>
      <reference value="Patient/629528"/>
    </patient>
    <code> 
      <coding>
        <system value="http://snomed.info/sct"/>
        <code value="237084006"/>
        <display value="Cervicitis and endocervicitis"/>
      </coding>
      <text value="Cervicitis and endocervicitis"/>
    </code>
   <clinicalStatus value="confirmed"/>
   <onsetDateTime value="2007-11-20"/>
   
  </Condition>
  
  </resource>
  <request>
    <method value="POST"/>
    <url value="Condition/338"/>
  </request>
</entry>
  <entry>
  <resource>
    
    
  <Condition>
  <id value="339"/>
    <text>
     <status value="generated"/>
     <div xmlns="http://www.w3.org/1999/xhtml">Human papilloma virus infection</div>   
   </text>
    <patient>
      <reference value="Patient/629528"/>
    </patient>
    <code> 
      <coding>
        <system value="http://snomed.info/sct"/>
        <code value="240532009"/>
        <display value="Human papilloma virus infection"/>
      </coding>
      <text value="Human papilloma virus infection"/>
    </code>
   <clinicalStatus value="confirmed"/>
   <onsetDateTime value="2007-11-20"/>
   
  </Condition>
  
  </resource>
  <request>
    <method value="POST"/>
    <url value="Condition/339"/>
  </request>
</entry>
  <entry>
  <resource>
    
    
  <Condition>
  <id value="340"/>
    <text>
     <status value="generated"/>
     <div xmlns="http://www.w3.org/1999/xhtml">Papanicolaou smear of cervix with atypical squamous cells of undetermined significance (ASC-US)</div>   
   </text>
    <patient>
      <reference value="Patient/629528"/>
    </patient>
    <code> 
      <coding>
        <system value="http://snomed.info/sct"/>
        <code value="441087007"/>
        <display value="Papanicolaou smear of cervix with atypical squamous cells of undetermined significance (ASC-US)"/>
      </coding>
      <text value="Papanicolaou smear of cervix with atypical squamous cells of undetermined significance (ASC-US)"/>
    </code>
   <clinicalStatus value="confirmed"/>
   <onsetDateTime value="2007-11-20"/>
   
  </Condition>
  
  </resource>
  <request>
    <method value="POST"/>
    <url value="Condition/340"/>
  </request>
</entry>
<entry>
  <resource>
    
    
  <Observation>
  <id value="41-smokingstatus"/>
    <text>
      <status value="generated"/>
      <div xmlns="http://www.w3.org/1999/xhtml">Tobacco smoking status: Current some day smoker</div>
    </text>
    <code>
      <coding>
        <system value="http://loinc.org"/>
        <code value="72166-2"/>
        <display value="Tobacco smoking status"/>
      </coding>
      <text value="Tobacco smoking status"/>
    </code>
    <valueCodeableConcept>
      <coding>
        <system value="http://snomed.info/sct"/>
        <code value="428041000124106"/>
        <display value="Current some day smoker"/>
      </coding>
      <text value="Current some day smoker"/>
    </valueCodeableConcept>
    <status value="final"/>
    <subject>
      <reference value="Patient/629528"/>
    </subject>
  </Observation>
  
  </resource>
  <request>
    <method value="POST"/>
    <url value="Observation/41-smokingstatus"/>
  </request>
</entry>
<entry>
  <resource>
    
    
  <Observation>
  <id value="629528-gestage"/>
    <text>
      <status value="generated"/>
      <div xmlns="http://www.w3.org/1999/xhtml">1981-10-27: Gestational age at birth = 35.7 weeks</div>
    </text>
    <code>
      <coding>
        <system value="http://loinc.org"/>
        <code value="18185-9"/>
        <display value="Gestational age at birth"/>
      </coding>
      <text value="Gestational age at birth"/>
    </code>
    <valueQuantity>
      <value value="35.7"/>
      <unit value="weeks"/>
      <system value="http://unitsofmeasure.org" />
      <code value="wk"/>
    </valueQuantity>
    
    <effectiveDateTime value="1981-10-27"/>
    <status value="final"/>
    <subject>
      <reference value="Patient/629528"/>
    </subject>
  </Observation>
  
  </resource>
  <request>
    <method value="POST"/>
    <url value="Observation/629528-gestage"/>
  </request>
</entry>
  <entry>
  <resource>
    
    
    <List>
  <id value="4"/>
        <text>
            <status value="generated"/>
            <div xmlns="http://www.w3.org/1999/xhtml">No known allergies</div>
        </text>
        <code>
            <coding>
               <system value="http://loinc.org/"/>
               <code value="52473-6"/>
               <display value="Allergy"/>
            </coding>
            <text value="Allergy"/>
        </code>
        <subject>
          <reference value="Patient/629528"/>
        </subject>
        <date value="2000"/>
        <mode value="snapshot"/>
        <emptyReason>
            <coding>
                <system value="http://hl7.org/fhir/list-empty-reason"/>
                <code value="nilknown"/>
                <display value="Nil Known"/>
            </coding>
            <text value="Nil Known"/>
        </emptyReason>
    </List>
  
  </resource>
  <request>
    <method value="POST"/>
    <url value="List/4"/>
  </request>
</entry>

</Bundle>
