<?xml version="1.0" encoding="UTF-8"?>
<Bundle xmlns="http://hl7.org/fhir">
    <type value="transaction"/>

  <entry>
  <resource>
    
    
  <Patient>
    <id value="767980"/>
    <text>
      <status value="generated"/>
      <div xmlns="http://www.w3.org/1999/xhtml">
        <p>Thomas Moore</p>
      </div>
    </text>
    <identifier>
      <use value="usual"/>
      <type>
        <coding>
          <system value="http://hl7.org/fhir/v2/0203"/>
          <code value="MR"/>
          <display value="Medical record number"/>
        </coding>
        <text value="Medical record number"/>
      </type>
      <system value="http://hospital.smarthealthit.org"/>
      <value value="767980"/>
    </identifier>
    <name>
      <use value="official"/>
      <family value="Moore"/>
      <given value="Thomas"/>
      <given value="Q."/>
    </name>
    <telecom>
      <system value="phone"/>
      <value value="800-583-2533"/>
      <use value="mobile"/>
    </telecom>
    <telecom>
      <system value="email"/>
      <value value="thomas.moore@example.com"/>
    </telecom>
    <gender value="male" />
    <birthDate value="1953-08-29" />
    <address>
      <use value="home"/>
      <line value="33 Park AveApt 2"/>
      <city value="Broken Arrow"/>
      <state value="OK"/>
      <postalCode value="74014"/>
      <country value="USA"/>
    </address>
    <active value="true"/>
  </Patient>
  
  </resource>
  <request>
    <method value="POST"/>
    <url value="Patient/767980"/>
  </request>
</entry>
<entry>
  <resource>
    
    
  <Observation>
  <id value="1749-lab"/>
    <text>
      <status value="generated"/>
      <div xmlns="http://www.w3.org/1999/xhtml">2004-08-12: CK MB SerPl-mCnc = 7 ng/mL</div>
    </text>
    <code>
      <coding>
        <system value="http://loinc.org"/>
        <code value="13969-1"/>
        <display value="CK MB SerPl-mCnc"/>
      </coding>
      <text value="CK MB SerPl-mCnc"/>
    </code>
    <valueQuantity>
      <value value="7.0"/>
      <unit value="ng/mL"/>
      <system value="http://unitsofmeasure.org" />
      <code value=""/>
    </valueQuantity>
    
    <effectiveDateTime value="2004-08-12"/>
    <status value="final"/>
    <subject>
      <reference value="Patient/767980"/>
    </subject>
    <referenceRange>
      <meaning>
        <coding>
         <system value="http://hl7.org/fhir/referencerange-meaning"/>
         <code value="normal"/>
         <display value="Normal Range"/>
       </coding>
       <text value="Normal Range"/>
      </meaning>
      <low>
        <value value="0.0"/>
        <unit value="ng/mL"/>
        <code value="ng/mL"/>
        <system value="http://unitsofmeasure.org"/>
      </low>
      <high>
        <value value="5.0"/>
        <unit value="ng/mL"/>
        <code value="ng/mL"/>
        <system value="http://unitsofmeasure.org"/>
      </high>
    </referenceRange>
    
  </Observation>
  
  </resource>
  <request>
    <method value="POST"/>
    <url value="Observation/1749-lab"/>
  </request>
</entry>
<entry>
  <resource>
    
    
  <Observation>
  <id value="1750-lab"/>
    <text>
      <status value="generated"/>
      <div xmlns="http://www.w3.org/1999/xhtml">2004-08-12: Troponin I SerPl-mCnc = 0 ng/mL</div>
    </text>
    <code>
      <coding>
        <system value="http://loinc.org"/>
        <code value="10839-9"/>
        <display value="Troponin I SerPl-mCnc"/>
      </coding>
      <text value="Troponin I SerPl-mCnc"/>
    </code>
    <valueQuantity>
      <value value="0.0"/>
      <unit value="ng/mL"/>
      <system value="http://unitsofmeasure.org" />
      <code value=""/>
    </valueQuantity>
    
    <effectiveDateTime value="2004-08-12"/>
    <status value="final"/>
    <subject>
      <reference value="Patient/767980"/>
    </subject>
    <referenceRange>
      <meaning>
        <coding>
         <system value="http://hl7.org/fhir/referencerange-meaning"/>
         <code value="normal"/>
         <display value="Normal Range"/>
       </coding>
       <text value="Normal Range"/>
      </meaning>
      <low>
        <value value="0.0"/>
        <unit value="ng/mL"/>
        <code value="ng/mL"/>
        <system value="http://unitsofmeasure.org"/>
      </low>
      <high>
        <value value="1.5"/>
        <unit value="ng/mL"/>
        <code value="ng/mL"/>
        <system value="http://unitsofmeasure.org"/>
      </high>
    </referenceRange>
    
  </Observation>
  
  </resource>
  <request>
    <method value="POST"/>
    <url value="Observation/1750-lab"/>
  </request>
</entry>
<entry>
  <resource>
    
    
  <Observation>
  <id value="1751-lab"/>
    <text>
      <status value="generated"/>
      <div xmlns="http://www.w3.org/1999/xhtml">2004-08-12: Glucose SerPl-mCnc = 142 mg/dL</div>
    </text>
    <code>
      <coding>
        <system value="http://loinc.org"/>
        <code value="2345-7"/>
        <display value="Glucose SerPl-mCnc"/>
      </coding>
      <text value="Glucose SerPl-mCnc"/>
    </code>
    <valueQuantity>
      <value value="142.0"/>
      <unit value="mg/dL"/>
      <system value="http://unitsofmeasure.org" />
      <code value=""/>
    </valueQuantity>
    
    <effectiveDateTime value="2004-08-12"/>
    <status value="final"/>
    <subject>
      <reference value="Patient/767980"/>
    </subject>
    <referenceRange>
      <meaning>
        <coding>
         <system value="http://hl7.org/fhir/referencerange-meaning"/>
         <code value="normal"/>
         <display value="Normal Range"/>
       </coding>
       <text value="Normal Range"/>
      </meaning>
      <low>
        <value value="65.0"/>
        <unit value="mg/dL"/>
        <code value="mg/dL"/>
        <system value="http://unitsofmeasure.org"/>
      </low>
      <high>
        <value value="99.0"/>
        <unit value="mg/dL"/>
        <code value="mg/dL"/>
        <system value="http://unitsofmeasure.org"/>
      </high>
    </referenceRange>
    
  </Observation>
  
  </resource>
  <request>
    <method value="POST"/>
    <url value="Observation/1751-lab"/>
  </request>
</entry>
<entry>
  <resource>
    
    
  <Observation>
  <id value="1752-lab"/>
    <text>
      <status value="generated"/>
      <div xmlns="http://www.w3.org/1999/xhtml">2004-08-12: BUN SerPl-mCnc = 19 mg/dL</div>
    </text>
    <code>
      <coding>
        <system value="http://loinc.org"/>
        <code value="3094-0"/>
        <display value="BUN SerPl-mCnc"/>
      </coding>
      <text value="BUN SerPl-mCnc"/>
    </code>
    <valueQuantity>
      <value value="19.0"/>
      <unit value="mg/dL"/>
      <system value="http://unitsofmeasure.org" />
      <code value=""/>
    </valueQuantity>
    
    <effectiveDateTime value="2004-08-12"/>
    <status value="final"/>
    <subject>
      <reference value="Patient/767980"/>
    </subject>
    <referenceRange>
      <meaning>
        <coding>
         <system value="http://hl7.org/fhir/referencerange-meaning"/>
         <code value="normal"/>
         <display value="Normal Range"/>
       </coding>
       <text value="Normal Range"/>
      </meaning>
      <low>
        <value value="9.0"/>
        <unit value="mg/dL"/>
        <code value="mg/dL"/>
        <system value="http://unitsofmeasure.org"/>
      </low>
      <high>
        <value value="20.0"/>
        <unit value="mg/dL"/>
        <code value="mg/dL"/>
        <system value="http://unitsofmeasure.org"/>
      </high>
    </referenceRange>
    
  </Observation>
  
  </resource>
  <request>
    <method value="POST"/>
    <url value="Observation/1752-lab"/>
  </request>
</entry>
<entry>
  <resource>
    
    
  <Observation>
  <id value="1753-lab"/>
    <text>
      <status value="generated"/>
      <div xmlns="http://www.w3.org/1999/xhtml">2004-08-12: CK SerPl-cCnc = 448 U/L</div>
    </text>
    <code>
      <coding>
        <system value="http://loinc.org"/>
        <code value="2157-6"/>
        <display value="CK SerPl-cCnc"/>
      </coding>
      <text value="CK SerPl-cCnc"/>
    </code>
    <valueQuantity>
      <value value="448.0"/>
      <unit value="U/L"/>
      <system value="http://unitsofmeasure.org" />
      <code value=""/>
    </valueQuantity>
    
    <effectiveDateTime value="2004-08-12"/>
    <status value="final"/>
    <subject>
      <reference value="Patient/767980"/>
    </subject>
    <referenceRange>
      <meaning>
        <coding>
         <system value="http://hl7.org/fhir/referencerange-meaning"/>
         <code value="normal"/>
         <display value="Normal Range"/>
       </coding>
       <text value="Normal Range"/>
      </meaning>
      <low>
        <value value="20.0"/>
        <unit value="U/L"/>
        <code value="U/L"/>
        <system value="http://unitsofmeasure.org"/>
      </low>
      <high>
        <value value="259.0"/>
        <unit value="U/L"/>
        <code value="U/L"/>
        <system value="http://unitsofmeasure.org"/>
      </high>
    </referenceRange>
    
  </Observation>
  
  </resource>
  <request>
    <method value="POST"/>
    <url value="Observation/1753-lab"/>
  </request>
</entry>
<entry>
  <resource>
    
    
  <Observation>
  <id value="1754-lab"/>
    <text>
      <status value="generated"/>
      <div xmlns="http://www.w3.org/1999/xhtml">2004-08-12: PMV Bld = 8.6 fL</div>
    </text>
    <code>
      <coding>
        <system value="http://loinc.org"/>
        <code value="28542-9"/>
        <display value="PMV Bld"/>
      </coding>
      <text value="PMV Bld"/>
    </code>
    <valueQuantity>
      <value value="8.6"/>
      <unit value="fL"/>
      <system value="http://unitsofmeasure.org" />
      <code value=""/>
    </valueQuantity>
    
    <effectiveDateTime value="2004-08-12"/>
    <status value="final"/>
    <subject>
      <reference value="Patient/767980"/>
    </subject>
    <referenceRange>
      <meaning>
        <coding>
         <system value="http://hl7.org/fhir/referencerange-meaning"/>
         <code value="normal"/>
         <display value="Normal Range"/>
       </coding>
       <text value="Normal Range"/>
      </meaning>
      <low>
        <value value="6.0"/>
        <unit value="fL"/>
        <code value="fL"/>
        <system value="http://unitsofmeasure.org"/>
      </low>
      <high>
        <value value="9.5"/>
        <unit value="fL"/>
        <code value="fL"/>
        <system value="http://unitsofmeasure.org"/>
      </high>
    </referenceRange>
    
  </Observation>
  
  </resource>
  <request>
    <method value="POST"/>
    <url value="Observation/1754-lab"/>
  </request>
</entry>
<entry>
  <resource>
    
    
  <Observation>
  <id value="1755-lab"/>
    <text>
      <status value="generated"/>
      <div xmlns="http://www.w3.org/1999/xhtml">2004-08-12: RDW RBC-Rto = 12.9 %</div>
    </text>
    <code>
      <coding>
        <system value="http://loinc.org"/>
        <code value="30385-9"/>
        <display value="RDW RBC-Rto"/>
      </coding>
      <text value="RDW RBC-Rto"/>
    </code>
    <valueQuantity>
      <value value="12.9"/>
      <unit value="%"/>
      <system value="http://unitsofmeasure.org" />
      <code value=""/>
    </valueQuantity>
    
    <effectiveDateTime value="2004-08-12"/>
    <status value="final"/>
    <subject>
      <reference value="Patient/767980"/>
    </subject>
    <referenceRange>
      <meaning>
        <coding>
         <system value="http://hl7.org/fhir/referencerange-meaning"/>
         <code value="normal"/>
         <display value="Normal Range"/>
       </coding>
       <text value="Normal Range"/>
      </meaning>
      <low>
        <value value="11.5"/>
        <unit value="%"/>
        <code value="%"/>
        <system value="http://unitsofmeasure.org"/>
      </low>
      <high>
        <value value="14.0"/>
        <unit value="%"/>
        <code value="%"/>
        <system value="http://unitsofmeasure.org"/>
      </high>
    </referenceRange>
    
  </Observation>
  
  </resource>
  <request>
    <method value="POST"/>
    <url value="Observation/1755-lab"/>
  </request>
</entry>
<entry>
  <resource>
    
    
  <Observation>
  <id value="1756-lab"/>
    <text>
      <status value="generated"/>
      <div xmlns="http://www.w3.org/1999/xhtml">2004-08-12: Calcium SerPl-mCnc = 9 mg/dL</div>
    </text>
    <code>
      <coding>
        <system value="http://loinc.org"/>
        <code value="17861-6"/>
        <display value="Calcium SerPl-mCnc"/>
      </coding>
      <text value="Calcium SerPl-mCnc"/>
    </code>
    <valueQuantity>
      <value value="9.0"/>
      <unit value="mg/dL"/>
      <system value="http://unitsofmeasure.org" />
      <code value=""/>
    </valueQuantity>
    
    <effectiveDateTime value="2004-08-12"/>
    <status value="final"/>
    <subject>
      <reference value="Patient/767980"/>
    </subject>
    <referenceRange>
      <meaning>
        <coding>
         <system value="http://hl7.org/fhir/referencerange-meaning"/>
         <code value="normal"/>
         <display value="Normal Range"/>
       </coding>
       <text value="Normal Range"/>
      </meaning>
      <low>
        <value value="8.4"/>
        <unit value="mg/dL"/>
        <code value="mg/dL"/>
        <system value="http://unitsofmeasure.org"/>
      </low>
      <high>
        <value value="10.2"/>
        <unit value="mg/dL"/>
        <code value="mg/dL"/>
        <system value="http://unitsofmeasure.org"/>
      </high>
    </referenceRange>
    
  </Observation>
  
  </resource>
  <request>
    <method value="POST"/>
    <url value="Observation/1756-lab"/>
  </request>
</entry>
<entry>
  <resource>
    
    
  <Observation>
  <id value="1757-lab"/>
    <text>
      <status value="generated"/>
      <div xmlns="http://www.w3.org/1999/xhtml">2004-08-12: Sodium SerPl-sCnc = 142 mmol/L</div>
    </text>
    <code>
      <coding>
        <system value="http://loinc.org"/>
        <code value="2951-2"/>
        <display value="Sodium SerPl-sCnc"/>
      </coding>
      <text value="Sodium SerPl-sCnc"/>
    </code>
    <valueQuantity>
      <value value="142.0"/>
      <unit value="mmol/L"/>
      <system value="http://unitsofmeasure.org" />
      <code value=""/>
    </valueQuantity>
    
    <effectiveDateTime value="2004-08-12"/>
    <status value="final"/>
    <subject>
      <reference value="Patient/767980"/>
    </subject>
    <referenceRange>
      <meaning>
        <coding>
         <system value="http://hl7.org/fhir/referencerange-meaning"/>
         <code value="normal"/>
         <display value="Normal Range"/>
       </coding>
       <text value="Normal Range"/>
      </meaning>
      <low>
        <value value="137.0"/>
        <unit value="mmol/L"/>
        <code value="mmol/L"/>
        <system value="http://unitsofmeasure.org"/>
      </low>
      <high>
        <value value="145.0"/>
        <unit value="mmol/L"/>
        <code value="mmol/L"/>
        <system value="http://unitsofmeasure.org"/>
      </high>
    </referenceRange>
    
  </Observation>
  
  </resource>
  <request>
    <method value="POST"/>
    <url value="Observation/1757-lab"/>
  </request>
</entry>
<entry>
  <resource>
    
    
  <Observation>
  <id value="1758-lab"/>
    <text>
      <status value="generated"/>
      <div xmlns="http://www.w3.org/1999/xhtml">2004-08-12: Creat SerPl-mCnc = 1.1 mg/dL</div>
    </text>
    <code>
      <coding>
        <system value="http://loinc.org"/>
        <code value="2160-0"/>
        <display value="Creat SerPl-mCnc"/>
      </coding>
      <text value="Creat SerPl-mCnc"/>
    </code>
    <valueQuantity>
      <value value="1.1"/>
      <unit value="mg/dL"/>
      <system value="http://unitsofmeasure.org" />
      <code value=""/>
    </valueQuantity>
    
    <effectiveDateTime value="2004-08-12"/>
    <status value="final"/>
    <subject>
      <reference value="Patient/767980"/>
    </subject>
    <referenceRange>
      <meaning>
        <coding>
         <system value="http://hl7.org/fhir/referencerange-meaning"/>
         <code value="normal"/>
         <display value="Normal Range"/>
       </coding>
       <text value="Normal Range"/>
      </meaning>
      <low>
        <value value="0.8"/>
        <unit value="mg/dL"/>
        <code value="mg/dL"/>
        <system value="http://unitsofmeasure.org"/>
      </low>
      <high>
        <value value="1.5"/>
        <unit value="mg/dL"/>
        <code value="mg/dL"/>
        <system value="http://unitsofmeasure.org"/>
      </high>
    </referenceRange>
    
  </Observation>
  
  </resource>
  <request>
    <method value="POST"/>
    <url value="Observation/1758-lab"/>
  </request>
</entry>
<entry>
  <resource>
    
    
  <Observation>
  <id value="1759-lab"/>
    <text>
      <status value="generated"/>
      <div xmlns="http://www.w3.org/1999/xhtml">2004-08-12: Potassium SerPl-sCnc = 3.9 mmol/L</div>
    </text>
    <code>
      <coding>
        <system value="http://loinc.org"/>
        <code value="2823-3"/>
        <display value="Potassium SerPl-sCnc"/>
      </coding>
      <text value="Potassium SerPl-sCnc"/>
    </code>
    <valueQuantity>
      <value value="3.9"/>
      <unit value="mmol/L"/>
      <system value="http://unitsofmeasure.org" />
      <code value=""/>
    </valueQuantity>
    
    <effectiveDateTime value="2004-08-12"/>
    <status value="final"/>
    <subject>
      <reference value="Patient/767980"/>
    </subject>
    <referenceRange>
      <meaning>
        <coding>
         <system value="http://hl7.org/fhir/referencerange-meaning"/>
         <code value="normal"/>
         <display value="Normal Range"/>
       </coding>
       <text value="Normal Range"/>
      </meaning>
      <low>
        <value value="3.6"/>
        <unit value="mmol/L"/>
        <code value="mmol/L"/>
        <system value="http://unitsofmeasure.org"/>
      </low>
      <high>
        <value value="5.5"/>
        <unit value="mmol/L"/>
        <code value="mmol/L"/>
        <system value="http://unitsofmeasure.org"/>
      </high>
    </referenceRange>
    
  </Observation>
  
  </resource>
  <request>
    <method value="POST"/>
    <url value="Observation/1759-lab"/>
  </request>
</entry>
<entry>
  <resource>
    
    
  <Observation>
  <id value="1760-lab"/>
    <text>
      <status value="generated"/>
      <div xmlns="http://www.w3.org/1999/xhtml">2004-08-12: Chloride SerPl-sCnc = 105 mmol/L</div>
    </text>
    <code>
      <coding>
        <system value="http://loinc.org"/>
        <code value="2075-0"/>
        <display value="Chloride SerPl-sCnc"/>
      </coding>
      <text value="Chloride SerPl-sCnc"/>
    </code>
    <valueQuantity>
      <value value="105.0"/>
      <unit value="mmol/L"/>
      <system value="http://unitsofmeasure.org" />
      <code value=""/>
    </valueQuantity>
    
    <effectiveDateTime value="2004-08-12"/>
    <status value="final"/>
    <subject>
      <reference value="Patient/767980"/>
    </subject>
    <referenceRange>
      <meaning>
        <coding>
         <system value="http://hl7.org/fhir/referencerange-meaning"/>
         <code value="normal"/>
         <display value="Normal Range"/>
       </coding>
       <text value="Normal Range"/>
      </meaning>
      <low>
        <value value="98.0"/>
        <unit value="mmol/L"/>
        <code value="mmol/L"/>
        <system value="http://unitsofmeasure.org"/>
      </low>
      <high>
        <value value="107.0"/>
        <unit value="mmol/L"/>
        <code value="mmol/L"/>
        <system value="http://unitsofmeasure.org"/>
      </high>
    </referenceRange>
    
  </Observation>
  
  </resource>
  <request>
    <method value="POST"/>
    <url value="Observation/1760-lab"/>
  </request>
</entry>
<entry>
  <resource>
    
    
  <Observation>
  <id value="1761-lab"/>
    <text>
      <status value="generated"/>
      <div xmlns="http://www.w3.org/1999/xhtml">2004-08-12: Neutrophils NFr Bld = 65 %</div>
    </text>
    <code>
      <coding>
        <system value="http://loinc.org"/>
        <code value="26511-6"/>
        <display value="Neutrophils NFr Bld"/>
      </coding>
      <text value="Neutrophils NFr Bld"/>
    </code>
    <valueQuantity>
      <value value="65.0"/>
      <unit value="%"/>
      <system value="http://unitsofmeasure.org" />
      <code value=""/>
    </valueQuantity>
    
    <effectiveDateTime value="2004-08-12"/>
    <status value="final"/>
    <subject>
      <reference value="Patient/767980"/>
    </subject>
    <referenceRange>
      <meaning>
        <coding>
         <system value="http://hl7.org/fhir/referencerange-meaning"/>
         <code value="normal"/>
         <display value="Normal Range"/>
       </coding>
       <text value="Normal Range"/>
      </meaning>
      <low>
        <value value="44.0"/>
        <unit value="%"/>
        <code value="%"/>
        <system value="http://unitsofmeasure.org"/>
      </low>
      <high>
        <value value="74.0"/>
        <unit value="%"/>
        <code value="%"/>
        <system value="http://unitsofmeasure.org"/>
      </high>
    </referenceRange>
    
  </Observation>
  
  </resource>
  <request>
    <method value="POST"/>
    <url value="Observation/1761-lab"/>
  </request>
</entry>
<entry>
  <resource>
    
    
  <Observation>
  <id value="1762-lab"/>
    <text>
      <status value="generated"/>
      <div xmlns="http://www.w3.org/1999/xhtml">2004-08-12: Lymphocytes NFr Bld = 27 %</div>
    </text>
    <code>
      <coding>
        <system value="http://loinc.org"/>
        <code value="26478-8"/>
        <display value="Lymphocytes NFr Bld"/>
      </coding>
      <text value="Lymphocytes NFr Bld"/>
    </code>
    <valueQuantity>
      <value value="27.0"/>
      <unit value="%"/>
      <system value="http://unitsofmeasure.org" />
      <code value=""/>
    </valueQuantity>
    
    <effectiveDateTime value="2004-08-12"/>
    <status value="final"/>
    <subject>
      <reference value="Patient/767980"/>
    </subject>
    <referenceRange>
      <meaning>
        <coding>
         <system value="http://hl7.org/fhir/referencerange-meaning"/>
         <code value="normal"/>
         <display value="Normal Range"/>
       </coding>
       <text value="Normal Range"/>
      </meaning>
      <low>
        <value value="20.0"/>
        <unit value="%"/>
        <code value="%"/>
        <system value="http://unitsofmeasure.org"/>
      </low>
      <high>
        <value value="50.0"/>
        <unit value="%"/>
        <code value="%"/>
        <system value="http://unitsofmeasure.org"/>
      </high>
    </referenceRange>
    
  </Observation>
  
  </resource>
  <request>
    <method value="POST"/>
    <url value="Observation/1762-lab"/>
  </request>
</entry>
<entry>
  <resource>
    
    
  <Observation>
  <id value="1763-lab"/>
    <text>
      <status value="generated"/>
      <div xmlns="http://www.w3.org/1999/xhtml">2004-08-12: Eosinophil NFr Bld = 2 %</div>
    </text>
    <code>
      <coding>
        <system value="http://loinc.org"/>
        <code value="26450-7"/>
        <display value="Eosinophil NFr Bld"/>
      </coding>
      <text value="Eosinophil NFr Bld"/>
    </code>
    <valueQuantity>
      <value value="2.0"/>
      <unit value="%"/>
      <system value="http://unitsofmeasure.org" />
      <code value=""/>
    </valueQuantity>
    
    <effectiveDateTime value="2004-08-12"/>
    <status value="final"/>
    <subject>
      <reference value="Patient/767980"/>
    </subject>
    <referenceRange>
      <meaning>
        <coding>
         <system value="http://hl7.org/fhir/referencerange-meaning"/>
         <code value="normal"/>
         <display value="Normal Range"/>
       </coding>
       <text value="Normal Range"/>
      </meaning>
      <low>
        <value value="0.0"/>
        <unit value="%"/>
        <code value="%"/>
        <system value="http://unitsofmeasure.org"/>
      </low>
      <high>
        <value value="7.0"/>
        <unit value="%"/>
        <code value="%"/>
        <system value="http://unitsofmeasure.org"/>
      </high>
    </referenceRange>
    
  </Observation>
  
  </resource>
  <request>
    <method value="POST"/>
    <url value="Observation/1763-lab"/>
  </request>
</entry>
<entry>
  <resource>
    
    
  <Observation>
  <id value="1764-lab"/>
    <text>
      <status value="generated"/>
      <div xmlns="http://www.w3.org/1999/xhtml">2004-08-12: Hgb Bld-mCnc = 17.5 g/dL</div>
    </text>
    <code>
      <coding>
        <system value="http://loinc.org"/>
        <code value="718-7"/>
        <display value="Hgb Bld-mCnc"/>
      </coding>
      <text value="Hgb Bld-mCnc"/>
    </code>
    <valueQuantity>
      <value value="17.5"/>
      <unit value="g/dL"/>
      <system value="http://unitsofmeasure.org" />
      <code value=""/>
    </valueQuantity>
    
    <effectiveDateTime value="2004-08-12"/>
    <status value="final"/>
    <subject>
      <reference value="Patient/767980"/>
    </subject>
    <referenceRange>
      <meaning>
        <coding>
         <system value="http://hl7.org/fhir/referencerange-meaning"/>
         <code value="normal"/>
         <display value="Normal Range"/>
       </coding>
       <text value="Normal Range"/>
      </meaning>
      <low>
        <value value="13.5"/>
        <unit value="g/dL"/>
        <code value="g/dL"/>
        <system value="http://unitsofmeasure.org"/>
      </low>
      <high>
        <value value="18.0"/>
        <unit value="g/dL"/>
        <code value="g/dL"/>
        <system value="http://unitsofmeasure.org"/>
      </high>
    </referenceRange>
    
  </Observation>
  
  </resource>
  <request>
    <method value="POST"/>
    <url value="Observation/1764-lab"/>
  </request>
</entry>
<entry>
  <resource>
    
    
  <Observation>
  <id value="1765-lab"/>
    <text>
      <status value="generated"/>
      <div xmlns="http://www.w3.org/1999/xhtml">2004-08-12: WBC # Bld = 9.8 10*3/uL</div>
    </text>
    <code>
      <coding>
        <system value="http://loinc.org"/>
        <code value="26464-8"/>
        <display value="WBC # Bld"/>
      </coding>
      <text value="WBC # Bld"/>
    </code>
    <valueQuantity>
      <value value="9.8"/>
      <unit value="10*3/uL"/>
      <system value="http://unitsofmeasure.org" />
      <code value=""/>
    </valueQuantity>
    
    <effectiveDateTime value="2004-08-12"/>
    <status value="final"/>
    <subject>
      <reference value="Patient/767980"/>
    </subject>
    <referenceRange>
      <meaning>
        <coding>
         <system value="http://hl7.org/fhir/referencerange-meaning"/>
         <code value="normal"/>
         <display value="Normal Range"/>
       </coding>
       <text value="Normal Range"/>
      </meaning>
      <low>
        <value value="4.0"/>
        <unit value="10*3/uL"/>
        <code value="10*3/uL"/>
        <system value="http://unitsofmeasure.org"/>
      </low>
      <high>
        <value value="10.5"/>
        <unit value="10*3/uL"/>
        <code value="10*3/uL"/>
        <system value="http://unitsofmeasure.org"/>
      </high>
    </referenceRange>
    
  </Observation>
  
  </resource>
  <request>
    <method value="POST"/>
    <url value="Observation/1765-lab"/>
  </request>
</entry>
<entry>
  <resource>
    
    
  <Observation>
  <id value="1766-lab"/>
    <text>
      <status value="generated"/>
      <div xmlns="http://www.w3.org/1999/xhtml">2004-08-12: RBC # Bld Auto = 5.44 10*6/uL</div>
    </text>
    <code>
      <coding>
        <system value="http://loinc.org"/>
        <code value="789-8"/>
        <display value="RBC # Bld Auto"/>
      </coding>
      <text value="RBC # Bld Auto"/>
    </code>
    <valueQuantity>
      <value value="5.44"/>
      <unit value="10*6/uL"/>
      <system value="http://unitsofmeasure.org" />
      <code value=""/>
    </valueQuantity>
    
    <effectiveDateTime value="2004-08-12"/>
    <status value="final"/>
    <subject>
      <reference value="Patient/767980"/>
    </subject>
    <referenceRange>
      <meaning>
        <coding>
         <system value="http://hl7.org/fhir/referencerange-meaning"/>
         <code value="normal"/>
         <display value="Normal Range"/>
       </coding>
       <text value="Normal Range"/>
      </meaning>
      <low>
        <value value="4.7"/>
        <unit value="10*6/uL"/>
        <code value="10*6/uL"/>
        <system value="http://unitsofmeasure.org"/>
      </low>
      <high>
        <value value="6.0"/>
        <unit value="10*6/uL"/>
        <code value="10*6/uL"/>
        <system value="http://unitsofmeasure.org"/>
      </high>
    </referenceRange>
    
  </Observation>
  
  </resource>
  <request>
    <method value="POST"/>
    <url value="Observation/1766-lab"/>
  </request>
</entry>
<entry>
  <resource>
    
    
  <Observation>
  <id value="1767-lab"/>
    <text>
      <status value="generated"/>
      <div xmlns="http://www.w3.org/1999/xhtml">2004-08-12: Platelet # Bld = 248 10*3/uL</div>
    </text>
    <code>
      <coding>
        <system value="http://loinc.org"/>
        <code value="26515-7"/>
        <display value="Platelet # Bld"/>
      </coding>
      <text value="Platelet # Bld"/>
    </code>
    <valueQuantity>
      <value value="248.0"/>
      <unit value="10*3/uL"/>
      <system value="http://unitsofmeasure.org" />
      <code value=""/>
    </valueQuantity>
    
    <effectiveDateTime value="2004-08-12"/>
    <status value="final"/>
    <subject>
      <reference value="Patient/767980"/>
    </subject>
    <referenceRange>
      <meaning>
        <coding>
         <system value="http://hl7.org/fhir/referencerange-meaning"/>
         <code value="normal"/>
         <display value="Normal Range"/>
       </coding>
       <text value="Normal Range"/>
      </meaning>
      <low>
        <value value="150.0"/>
        <unit value="10*3/uL"/>
        <code value="10*3/uL"/>
        <system value="http://unitsofmeasure.org"/>
      </low>
      <high>
        <value value="450.0"/>
        <unit value="10*3/uL"/>
        <code value="10*3/uL"/>
        <system value="http://unitsofmeasure.org"/>
      </high>
    </referenceRange>
    
  </Observation>
  
  </resource>
  <request>
    <method value="POST"/>
    <url value="Observation/1767-lab"/>
  </request>
</entry>
<entry>
  <resource>
    
    
  <Observation>
  <id value="1768-lab"/>
    <text>
      <status value="generated"/>
      <div xmlns="http://www.w3.org/1999/xhtml">2004-08-12: MCV RBC = 90.8 fL</div>
    </text>
    <code>
      <coding>
        <system value="http://loinc.org"/>
        <code value="30428-7"/>
        <display value="MCV RBC"/>
      </coding>
      <text value="MCV RBC"/>
    </code>
    <valueQuantity>
      <value value="90.8"/>
      <unit value="fL"/>
      <system value="http://unitsofmeasure.org" />
      <code value=""/>
    </valueQuantity>
    
    <effectiveDateTime value="2004-08-12"/>
    <status value="final"/>
    <subject>
      <reference value="Patient/767980"/>
    </subject>
    <referenceRange>
      <meaning>
        <coding>
         <system value="http://hl7.org/fhir/referencerange-meaning"/>
         <code value="normal"/>
         <display value="Normal Range"/>
       </coding>
       <text value="Normal Range"/>
      </meaning>
      <low>
        <value value="78.0"/>
        <unit value="fL"/>
        <code value="fL"/>
        <system value="http://unitsofmeasure.org"/>
      </low>
      <high>
        <value value="100.0"/>
        <unit value="fL"/>
        <code value="fL"/>
        <system value="http://unitsofmeasure.org"/>
      </high>
    </referenceRange>
    
  </Observation>
  
  </resource>
  <request>
    <method value="POST"/>
    <url value="Observation/1768-lab"/>
  </request>
</entry>
<entry>
  <resource>
    
    
  <Observation>
  <id value="1769-lab"/>
    <text>
      <status value="generated"/>
      <div xmlns="http://www.w3.org/1999/xhtml">2004-08-12: MCH RBC Qn Auto = 32.2 pg</div>
    </text>
    <code>
      <coding>
        <system value="http://loinc.org"/>
        <code value="785-6"/>
        <display value="MCH RBC Qn Auto"/>
      </coding>
      <text value="MCH RBC Qn Auto"/>
    </code>
    <valueQuantity>
      <value value="32.2"/>
      <unit value="pg"/>
      <system value="http://unitsofmeasure.org" />
      <code value=""/>
    </valueQuantity>
    
    <effectiveDateTime value="2004-08-12"/>
    <status value="final"/>
    <subject>
      <reference value="Patient/767980"/>
    </subject>
    <referenceRange>
      <meaning>
        <coding>
         <system value="http://hl7.org/fhir/referencerange-meaning"/>
         <code value="normal"/>
         <display value="Normal Range"/>
       </coding>
       <text value="Normal Range"/>
      </meaning>
      <low>
        <value value="27.0"/>
        <unit value="pg"/>
        <code value="pg"/>
        <system value="http://unitsofmeasure.org"/>
      </low>
      <high>
        <value value="31.0"/>
        <unit value="pg"/>
        <code value="pg"/>
        <system value="http://unitsofmeasure.org"/>
      </high>
    </referenceRange>
    
  </Observation>
  
  </resource>
  <request>
    <method value="POST"/>
    <url value="Observation/1769-lab"/>
  </request>
</entry>
<entry>
  <resource>
    
    
  <Observation>
  <id value="1770-lab"/>
    <text>
      <status value="generated"/>
      <div xmlns="http://www.w3.org/1999/xhtml">2004-08-12: MCHC RBC Auto-mCnc = 35.5 g/dL</div>
    </text>
    <code>
      <coding>
        <system value="http://loinc.org"/>
        <code value="786-4"/>
        <display value="MCHC RBC Auto-mCnc"/>
      </coding>
      <text value="MCHC RBC Auto-mCnc"/>
    </code>
    <valueQuantity>
      <value value="35.5"/>
      <unit value="g/dL"/>
      <system value="http://unitsofmeasure.org" />
      <code value=""/>
    </valueQuantity>
    
    <effectiveDateTime value="2004-08-12"/>
    <status value="final"/>
    <subject>
      <reference value="Patient/767980"/>
    </subject>
    <referenceRange>
      <meaning>
        <coding>
         <system value="http://hl7.org/fhir/referencerange-meaning"/>
         <code value="normal"/>
         <display value="Normal Range"/>
       </coding>
       <text value="Normal Range"/>
      </meaning>
      <low>
        <value value="32.0"/>
        <unit value="g/dL"/>
        <code value="g/dL"/>
        <system value="http://unitsofmeasure.org"/>
      </low>
      <high>
        <value value="36.0"/>
        <unit value="g/dL"/>
        <code value="g/dL"/>
        <system value="http://unitsofmeasure.org"/>
      </high>
    </referenceRange>
    
  </Observation>
  
  </resource>
  <request>
    <method value="POST"/>
    <url value="Observation/1770-lab"/>
  </request>
</entry>
<entry>
  <resource>
    
    
<MedicationOrder>
  <id value="52"/>
  <text>
    <status value="generated"/>
    <div xmlns="http://www.w3.org/1999/xhtml">
      Cephalexin 500 MG Oral Capsule (rxnorm: 309114)
    </div>
  </text>

  <status value="active" />
  <patient>
    <reference value="Patient/767980"/>
  </patient>

  <medicationCodeableConcept>
    <coding>
        <system value="http://www.nlm.nih.gov/research/umls/rxnorm"/>
        <code value="309114"/>
        <display value="Cephalexin 500 MG Oral Capsule"/>
    </coding>
    <text value="Cephalexin 500 MG Oral Capsule"/>
  </medicationCodeableConcept>

  <dosageInstruction>
    <timing>
      <repeat>
        <boundsPeriod>
          <start value="2004-10-18"/>
        </boundsPeriod>
        <frequency value="4"/>
        <period value="1"/>
        <periodUnits value="d"/>
      </repeat>
      
    </timing>
    <doseQuantity>
      <value value="1"/>
      <unit value="{tablet}"/>
      <system value="http://unitsofmeasure.org"/>
      <code value="{tablet}"/>
    </doseQuantity>
    
    <text value="1 qid"/>
  </dosageInstruction>
  <dispenseRequest>
     <numberOfRepeatsAllowed value="1"/>
     
     <quantity>
        <value value="40"/>
        <unit value="{tablet}"/>
        <system value="http://unitsofmeasure.org"/>
        <code value="{tablet}"/>
     </quantity>
     
     <expectedSupplyDuration>
        <value value="10"/>
        <unit value="days"/>
        <system value="http://unitsofmeasure.org"/>
        <code value="d"/>
     </expectedSupplyDuration>
     
  </dispenseRequest>
  
</MedicationOrder>

  </resource>
  <request>
    <method value="POST"/>
    <url value="MedicationOrder/52"/>
  </request>
</entry>
<entry>
  <resource>
    
    
<MedicationDispense>
  <id value="544"/>
  <!--  insert contents here  -->
   <text>
    <status value="generated"/>
    <div xmlns="http://www.w3.org/1999/xhtml">
      Dispensed 40 tablets = 10 day supply of Cephalexin 500 MG Oral Capsule
    </div>
  </text>

  <status value="completed"/>

  <patient>
    <reference value="Patient/767980"/>
  </patient>

  <authorizingPrescription>
    <reference value="MedicationOrder/52"/>
  </authorizingPrescription>

  <quantity>
      <value value="40"/>
      <unit value="tablets"/>
      <system value="http://unitsofmeasure.org"/>
      <code value="{tablets}"/>
  </quantity>

  <daysSupply>
      <value value="10" />
      <unit value="days" />
      <system value="http://unitsofmeasure.org" />
      <code value="d" />
  </daysSupply>

  <medicationCodeableConcept>
    <coding>
        <system value="http://www.nlm.nih.gov/research/umls/rxnorm"/>
        <code value="309114"/>
        <display value="Cephalexin 500 MG Oral Capsule"/>
    </coding>
    <text value="Cephalexin 500 MG Oral Capsule"/>
  </medicationCodeableConcept>

  <whenHandedOver value="2004-12-10"/>

</MedicationDispense>

  </resource>
  <request>
    <method value="POST"/>
    <url value="MedicationDispense/544"/>
  </request>
</entry>
<entry>
  <resource>
    
    
<MedicationDispense>
  <id value="543"/>
  <!--  insert contents here  -->
   <text>
    <status value="generated"/>
    <div xmlns="http://www.w3.org/1999/xhtml">
      Dispensed 40 tablets = 10 day supply of Cephalexin 500 MG Oral Capsule
    </div>
  </text>

  <status value="completed"/>

  <patient>
    <reference value="Patient/767980"/>
  </patient>

  <authorizingPrescription>
    <reference value="MedicationOrder/52"/>
  </authorizingPrescription>

  <quantity>
      <value value="40"/>
      <unit value="tablets"/>
      <system value="http://unitsofmeasure.org"/>
      <code value="{tablets}"/>
  </quantity>

  <daysSupply>
      <value value="10" />
      <unit value="days" />
      <system value="http://unitsofmeasure.org" />
      <code value="d" />
  </daysSupply>

  <medicationCodeableConcept>
    <coding>
        <system value="http://www.nlm.nih.gov/research/umls/rxnorm"/>
        <code value="309114"/>
        <display value="Cephalexin 500 MG Oral Capsule"/>
    </coding>
    <text value="Cephalexin 500 MG Oral Capsule"/>
  </medicationCodeableConcept>

  <whenHandedOver value="2004-10-18"/>

</MedicationDispense>

  </resource>
  <request>
    <method value="POST"/>
    <url value="MedicationDispense/543"/>
  </request>
</entry>
<entry>
  <resource>
    
    
<MedicationDispense>
  <id value="545"/>
  <!--  insert contents here  -->
   <text>
    <status value="generated"/>
    <div xmlns="http://www.w3.org/1999/xhtml">
      Dispensed 40 tablets = 10 day supply of Cephalexin 500 MG Oral Capsule
    </div>
  </text>

  <status value="completed"/>

  <patient>
    <reference value="Patient/767980"/>
  </patient>

  <authorizingPrescription>
    <reference value="MedicationOrder/52"/>
  </authorizingPrescription>

  <quantity>
      <value value="40"/>
      <unit value="tablets"/>
      <system value="http://unitsofmeasure.org"/>
      <code value="{tablets}"/>
  </quantity>

  <daysSupply>
      <value value="10" />
      <unit value="days" />
      <system value="http://unitsofmeasure.org" />
      <code value="d" />
  </daysSupply>

  <medicationCodeableConcept>
    <coding>
        <system value="http://www.nlm.nih.gov/research/umls/rxnorm"/>
        <code value="309114"/>
        <display value="Cephalexin 500 MG Oral Capsule"/>
    </coding>
    <text value="Cephalexin 500 MG Oral Capsule"/>
  </medicationCodeableConcept>

  <whenHandedOver value="2005-11-11"/>

</MedicationDispense>

  </resource>
  <request>
    <method value="POST"/>
    <url value="MedicationDispense/545"/>
  </request>
</entry>
<entry>
  <resource>
    
    
<MedicationOrder>
  <id value="53"/>
  <text>
    <status value="generated"/>
    <div xmlns="http://www.w3.org/1999/xhtml">
      Metoprolol 50 MG Oral Tablet (rxnorm: 866514)
    </div>
  </text>

  <status value="active" />
  <patient>
    <reference value="Patient/767980"/>
  </patient>

  <medicationCodeableConcept>
    <coding>
        <system value="http://www.nlm.nih.gov/research/umls/rxnorm"/>
        <code value="866514"/>
        <display value="Metoprolol 50 MG Oral Tablet"/>
    </coding>
    <text value="Metoprolol 50 MG Oral Tablet"/>
  </medicationCodeableConcept>

  <dosageInstruction>
    <timing>
      <repeat>
        <boundsPeriod>
          <start value="2004-10-29"/>
        </boundsPeriod>
        <frequency value="2"/>
        <period value="1"/>
        <periodUnits value="d"/>
      </repeat>
      
    </timing>
    <doseQuantity>
      <value value="1"/>
      <unit value="{tablet}"/>
      <system value="http://unitsofmeasure.org"/>
      <code value="{tablet}"/>
    </doseQuantity>
    
    <text value="1 bid"/>
  </dosageInstruction>
  <dispenseRequest>
     <numberOfRepeatsAllowed value="1"/>
     
     <quantity>
        <value value="60"/>
        <unit value="{tablet}"/>
        <system value="http://unitsofmeasure.org"/>
        <code value="{tablet}"/>
     </quantity>
     
     <expectedSupplyDuration>
        <value value="30"/>
        <unit value="days"/>
        <system value="http://unitsofmeasure.org"/>
        <code value="d"/>
     </expectedSupplyDuration>
     
  </dispenseRequest>
  
</MedicationOrder>

  </resource>
  <request>
    <method value="POST"/>
    <url value="MedicationOrder/53"/>
  </request>
</entry>
<entry>
  <resource>
    
    
<MedicationDispense>
  <id value="547"/>
  <!--  insert contents here  -->
   <text>
    <status value="generated"/>
    <div xmlns="http://www.w3.org/1999/xhtml">
      Dispensed 60 tablets = 30 day supply of Metoprolol 50 MG Oral Tablet
    </div>
  </text>

  <status value="completed"/>

  <patient>
    <reference value="Patient/767980"/>
  </patient>

  <authorizingPrescription>
    <reference value="MedicationOrder/53"/>
  </authorizingPrescription>

  <quantity>
      <value value="60"/>
      <unit value="tablets"/>
      <system value="http://unitsofmeasure.org"/>
      <code value="{tablets}"/>
  </quantity>

  <daysSupply>
      <value value="30" />
      <unit value="days" />
      <system value="http://unitsofmeasure.org" />
      <code value="d" />
  </daysSupply>

  <medicationCodeableConcept>
    <coding>
        <system value="http://www.nlm.nih.gov/research/umls/rxnorm"/>
        <code value="866514"/>
        <display value="Metoprolol 50 MG Oral Tablet"/>
    </coding>
    <text value="Metoprolol 50 MG Oral Tablet"/>
  </medicationCodeableConcept>

  <whenHandedOver value="2004-10-29"/>

</MedicationDispense>

  </resource>
  <request>
    <method value="POST"/>
    <url value="MedicationDispense/547"/>
  </request>
</entry>
<entry>
  <resource>
    
    
<MedicationOrder>
  <id value="54"/>
  <text>
    <status value="generated"/>
    <div xmlns="http://www.w3.org/1999/xhtml">
      Guaifenesin 600 MG / Phenylephrine 30 MG Extended Release Tablet [Crantex LA] (rxnorm: 283342)
    </div>
  </text>

  <status value="active" />
  <patient>
    <reference value="Patient/767980"/>
  </patient>

  <medicationCodeableConcept>
    <coding>
        <system value="http://www.nlm.nih.gov/research/umls/rxnorm"/>
        <code value="283342"/>
        <display value="Guaifenesin 600 MG / Phenylephrine 30 MG Extended Release Tablet [Crantex LA]"/>
    </coding>
    <text value="Guaifenesin 600 MG / Phenylephrine 30 MG Extended Release Tablet [Crantex LA]"/>
  </medicationCodeableConcept>

  <dosageInstruction>
    <timing>
      <repeat>
        <boundsPeriod>
          <start value="2004-12-10"/>
        </boundsPeriod>
        <frequency value="2"/>
        <period value="1"/>
        <periodUnits value="d"/>
      </repeat>
      
    </timing>
    <doseQuantity>
      <value value="1"/>
      <unit value="{tablet}"/>
      <system value="http://unitsofmeasure.org"/>
      <code value="{tablet}"/>
    </doseQuantity>
    
    <text value="1 bid"/>
  </dosageInstruction>
  <dispenseRequest>
     <numberOfRepeatsAllowed value="1"/>
     
     <quantity>
        <value value="20"/>
        <unit value="{tablet}"/>
        <system value="http://unitsofmeasure.org"/>
        <code value="{tablet}"/>
     </quantity>
     
     <expectedSupplyDuration>
        <value value="10"/>
        <unit value="days"/>
        <system value="http://unitsofmeasure.org"/>
        <code value="d"/>
     </expectedSupplyDuration>
     
  </dispenseRequest>
  
</MedicationOrder>

  </resource>
  <request>
    <method value="POST"/>
    <url value="MedicationOrder/54"/>
  </request>
</entry>
<entry>
  <resource>
    
    
<MedicationDispense>
  <id value="540"/>
  <!--  insert contents here  -->
   <text>
    <status value="generated"/>
    <div xmlns="http://www.w3.org/1999/xhtml">
      Dispensed 20 tablets = 10 day supply of Guaifenesin 600 MG / Phenylephrine 30 MG Extended Release Tablet [Crantex LA]
    </div>
  </text>

  <status value="completed"/>

  <patient>
    <reference value="Patient/767980"/>
  </patient>

  <authorizingPrescription>
    <reference value="MedicationOrder/54"/>
  </authorizingPrescription>

  <quantity>
      <value value="20"/>
      <unit value="tablets"/>
      <system value="http://unitsofmeasure.org"/>
      <code value="{tablets}"/>
  </quantity>

  <daysSupply>
      <value value="10" />
      <unit value="days" />
      <system value="http://unitsofmeasure.org" />
      <code value="d" />
  </daysSupply>

  <medicationCodeableConcept>
    <coding>
        <system value="http://www.nlm.nih.gov/research/umls/rxnorm"/>
        <code value="283342"/>
        <display value="Guaifenesin 600 MG / Phenylephrine 30 MG Extended Release Tablet [Crantex LA]"/>
    </coding>
    <text value="Guaifenesin 600 MG / Phenylephrine 30 MG Extended Release Tablet [Crantex LA]"/>
  </medicationCodeableConcept>

  <whenHandedOver value="2004-12-10"/>

</MedicationDispense>

  </resource>
  <request>
    <method value="POST"/>
    <url value="MedicationDispense/540"/>
  </request>
</entry>
<entry>
  <resource>
    
    
<MedicationOrder>
  <id value="55"/>
  <text>
    <status value="generated"/>
    <div xmlns="http://www.w3.org/1999/xhtml">
      Metformin 500 MG Oral Tablet (rxnorm: 861007)
    </div>
  </text>

  <status value="active" />
  <patient>
    <reference value="Patient/767980"/>
  </patient>

  <medicationCodeableConcept>
    <coding>
        <system value="http://www.nlm.nih.gov/research/umls/rxnorm"/>
        <code value="861007"/>
        <display value="Metformin 500 MG Oral Tablet"/>
    </coding>
    <text value="Metformin 500 MG Oral Tablet"/>
  </medicationCodeableConcept>

  <dosageInstruction>
    <timing>
      <repeat>
        <boundsPeriod>
          <start value="2004-12-10"/>
        </boundsPeriod>
        <frequency value="2"/>
        <period value="1"/>
        <periodUnits value="d"/>
      </repeat>
      
    </timing>
    <doseQuantity>
      <value value="1"/>
      <unit value="{tablet}"/>
      <system value="http://unitsofmeasure.org"/>
      <code value="{tablet}"/>
    </doseQuantity>
    
    <text value="1 bid"/>
  </dosageInstruction>
  <dispenseRequest>
     <numberOfRepeatsAllowed value="1"/>
     
     <quantity>
        <value value="60"/>
        <unit value="{tablet}"/>
        <system value="http://unitsofmeasure.org"/>
        <code value="{tablet}"/>
     </quantity>
     
     <expectedSupplyDuration>
        <value value="30"/>
        <unit value="days"/>
        <system value="http://unitsofmeasure.org"/>
        <code value="d"/>
     </expectedSupplyDuration>
     
  </dispenseRequest>
  
</MedicationOrder>

  </resource>
  <request>
    <method value="POST"/>
    <url value="MedicationOrder/55"/>
  </request>
</entry>
<entry>
  <resource>
    
    
<MedicationDispense>
  <id value="551"/>
  <!--  insert contents here  -->
   <text>
    <status value="generated"/>
    <div xmlns="http://www.w3.org/1999/xhtml">
      Dispensed 60 tablets = 30 day supply of Metformin 500 MG Oral Tablet
    </div>
  </text>

  <status value="completed"/>

  <patient>
    <reference value="Patient/767980"/>
  </patient>

  <authorizingPrescription>
    <reference value="MedicationOrder/55"/>
  </authorizingPrescription>

  <quantity>
      <value value="60"/>
      <unit value="tablets"/>
      <system value="http://unitsofmeasure.org"/>
      <code value="{tablets}"/>
  </quantity>

  <daysSupply>
      <value value="30" />
      <unit value="days" />
      <system value="http://unitsofmeasure.org" />
      <code value="d" />
  </daysSupply>

  <medicationCodeableConcept>
    <coding>
        <system value="http://www.nlm.nih.gov/research/umls/rxnorm"/>
        <code value="861007"/>
        <display value="Metformin 500 MG Oral Tablet"/>
    </coding>
    <text value="Metformin 500 MG Oral Tablet"/>
  </medicationCodeableConcept>

  <whenHandedOver value="2005-01-05"/>

</MedicationDispense>

  </resource>
  <request>
    <method value="POST"/>
    <url value="MedicationDispense/551"/>
  </request>
</entry>
<entry>
  <resource>
    
    
<MedicationDispense>
  <id value="550"/>
  <!--  insert contents here  -->
   <text>
    <status value="generated"/>
    <div xmlns="http://www.w3.org/1999/xhtml">
      Dispensed 60 tablets = 30 day supply of Metformin 500 MG Oral Tablet
    </div>
  </text>

  <status value="completed"/>

  <patient>
    <reference value="Patient/767980"/>
  </patient>

  <authorizingPrescription>
    <reference value="MedicationOrder/55"/>
  </authorizingPrescription>

  <quantity>
      <value value="60"/>
      <unit value="tablets"/>
      <system value="http://unitsofmeasure.org"/>
      <code value="{tablets}"/>
  </quantity>

  <daysSupply>
      <value value="30" />
      <unit value="days" />
      <system value="http://unitsofmeasure.org" />
      <code value="d" />
  </daysSupply>

  <medicationCodeableConcept>
    <coding>
        <system value="http://www.nlm.nih.gov/research/umls/rxnorm"/>
        <code value="861007"/>
        <display value="Metformin 500 MG Oral Tablet"/>
    </coding>
    <text value="Metformin 500 MG Oral Tablet"/>
  </medicationCodeableConcept>

  <whenHandedOver value="2005-01-01"/>

</MedicationDispense>

  </resource>
  <request>
    <method value="POST"/>
    <url value="MedicationDispense/550"/>
  </request>
</entry>
<entry>
  <resource>
    
    
<MedicationDispense>
  <id value="549"/>
  <!--  insert contents here  -->
   <text>
    <status value="generated"/>
    <div xmlns="http://www.w3.org/1999/xhtml">
      Dispensed 60 tablets = 30 day supply of Metformin 500 MG Oral Tablet
    </div>
  </text>

  <status value="completed"/>

  <patient>
    <reference value="Patient/767980"/>
  </patient>

  <authorizingPrescription>
    <reference value="MedicationOrder/55"/>
  </authorizingPrescription>

  <quantity>
      <value value="60"/>
      <unit value="tablets"/>
      <system value="http://unitsofmeasure.org"/>
      <code value="{tablets}"/>
  </quantity>

  <daysSupply>
      <value value="30" />
      <unit value="days" />
      <system value="http://unitsofmeasure.org" />
      <code value="d" />
  </daysSupply>

  <medicationCodeableConcept>
    <coding>
        <system value="http://www.nlm.nih.gov/research/umls/rxnorm"/>
        <code value="861007"/>
        <display value="Metformin 500 MG Oral Tablet"/>
    </coding>
    <text value="Metformin 500 MG Oral Tablet"/>
  </medicationCodeableConcept>

  <whenHandedOver value="2004-12-10"/>

</MedicationDispense>

  </resource>
  <request>
    <method value="POST"/>
    <url value="MedicationDispense/549"/>
  </request>
</entry>
<entry>
  <resource>
    
    
<MedicationOrder>
  <id value="56"/>
  <text>
    <status value="generated"/>
    <div xmlns="http://www.w3.org/1999/xhtml">
      Codeine 2 MG/ML / Guaifenesin 20 MG/ML Oral Solution (rxnorm: 309428)
    </div>
  </text>

  <status value="active" />
  <patient>
    <reference value="Patient/767980"/>
  </patient>

  <medicationCodeableConcept>
    <coding>
        <system value="http://www.nlm.nih.gov/research/umls/rxnorm"/>
        <code value="309428"/>
        <display value="Codeine 2 MG/ML / Guaifenesin 20 MG/ML Oral Solution"/>
    </coding>
    <text value="Codeine 2 MG/ML / Guaifenesin 20 MG/ML Oral Solution"/>
  </medicationCodeableConcept>

  <dosageInstruction>
    <timing>
      <repeat>
        <boundsPeriod>
          <start value="2004-12-24"/>
        </boundsPeriod>
        <frequency value="4"/>
        <period value="1"/>
        <periodUnits value="d"/>
      </repeat>
      
    </timing>
    <doseQuantity>
      <value value="5"/>
      <unit value="mL"/>
      <system value="http://unitsofmeasure.org"/>
      <code value="mL"/>
    </doseQuantity>
    
    <asNeededBoolean value="true"/>
    
    <text value="5 mL q6h prn cough"/>
  </dosageInstruction>
  <dispenseRequest>
     <numberOfRepeatsAllowed value="1"/>
     
     <quantity>
        <value value="1"/>
        <unit value="mL"/>
        <system value="http://unitsofmeasure.org"/>
        <code value="mL"/>
     </quantity>
     
     <expectedSupplyDuration>
        <value value="6"/>
        <unit value="days"/>
        <system value="http://unitsofmeasure.org"/>
        <code value="d"/>
     </expectedSupplyDuration>
     
  </dispenseRequest>
  
</MedicationOrder>

  </resource>
  <request>
    <method value="POST"/>
    <url value="MedicationOrder/56"/>
  </request>
</entry>
<entry>
  <resource>
    
    
<MedicationOrder>
  <id value="57"/>
  <text>
    <status value="generated"/>
    <div xmlns="http://www.w3.org/1999/xhtml">
      24 HR Glipizide 2.5 MG Extended Release Tablet (rxnorm: 310489)
    </div>
  </text>

  <status value="active" />
  <patient>
    <reference value="Patient/767980"/>
  </patient>

  <medicationCodeableConcept>
    <coding>
        <system value="http://www.nlm.nih.gov/research/umls/rxnorm"/>
        <code value="310489"/>
        <display value="24 HR Glipizide 2.5 MG Extended Release Tablet"/>
    </coding>
    <text value="24 HR Glipizide 2.5 MG Extended Release Tablet"/>
  </medicationCodeableConcept>

  <dosageInstruction>
    <timing>
      <repeat>
        <boundsPeriod>
          <start value="2005-12-17"/>
        </boundsPeriod>
        <frequency value="1"/>
        <period value="1"/>
        <periodUnits value="d"/>
      </repeat>
      
    </timing>
    <doseQuantity>
      <value value="1"/>
      <unit value="{tablet}"/>
      <system value="http://unitsofmeasure.org"/>
      <code value="{tablet}"/>
    </doseQuantity>
    
    <text value="1 daily"/>
  </dosageInstruction>
  <dispenseRequest>
     <numberOfRepeatsAllowed value="1"/>
     
     <quantity>
        <value value="30"/>
        <unit value="{tablet}"/>
        <system value="http://unitsofmeasure.org"/>
        <code value="{tablet}"/>
     </quantity>
     
     <expectedSupplyDuration>
        <value value="30"/>
        <unit value="days"/>
        <system value="http://unitsofmeasure.org"/>
        <code value="d"/>
     </expectedSupplyDuration>
     
  </dispenseRequest>
  
</MedicationOrder>

  </resource>
  <request>
    <method value="POST"/>
    <url value="MedicationOrder/57"/>
  </request>
</entry>
<entry>
  <resource>
    
    
<MedicationDispense>
  <id value="542"/>
  <!--  insert contents here  -->
   <text>
    <status value="generated"/>
    <div xmlns="http://www.w3.org/1999/xhtml">
      Dispensed 30 tablets = 30 day supply of 24 HR Glipizide 2.5 MG Extended Release Tablet
    </div>
  </text>

  <status value="completed"/>

  <patient>
    <reference value="Patient/767980"/>
  </patient>

  <authorizingPrescription>
    <reference value="MedicationOrder/57"/>
  </authorizingPrescription>

  <quantity>
      <value value="30"/>
      <unit value="tablets"/>
      <system value="http://unitsofmeasure.org"/>
      <code value="{tablets}"/>
  </quantity>

  <daysSupply>
      <value value="30" />
      <unit value="days" />
      <system value="http://unitsofmeasure.org" />
      <code value="d" />
  </daysSupply>

  <medicationCodeableConcept>
    <coding>
        <system value="http://www.nlm.nih.gov/research/umls/rxnorm"/>
        <code value="310489"/>
        <display value="24 HR Glipizide 2.5 MG Extended Release Tablet"/>
    </coding>
    <text value="24 HR Glipizide 2.5 MG Extended Release Tablet"/>
  </medicationCodeableConcept>

  <whenHandedOver value="2005-12-17"/>

</MedicationDispense>

  </resource>
  <request>
    <method value="POST"/>
    <url value="MedicationDispense/542"/>
  </request>
</entry>
<entry>
  <resource>
    
    
<MedicationOrder>
  <id value="58"/>
  <text>
    <status value="generated"/>
    <div xmlns="http://www.w3.org/1999/xhtml">
      ezetimibe 10 MG / Simvastatin 40 MG Oral Tablet [Vytorin] (rxnorm: 543354)
    </div>
  </text>

  <status value="active" />
  <patient>
    <reference value="Patient/767980"/>
  </patient>

  <medicationCodeableConcept>
    <coding>
        <system value="http://www.nlm.nih.gov/research/umls/rxnorm"/>
        <code value="543354"/>
        <display value="ezetimibe 10 MG / Simvastatin 40 MG Oral Tablet [Vytorin]"/>
    </coding>
    <text value="ezetimibe 10 MG / Simvastatin 40 MG Oral Tablet [Vytorin]"/>
  </medicationCodeableConcept>

  <dosageInstruction>
    <timing>
      <repeat>
        <boundsPeriod>
          <start value="2005-12-17"/>
        </boundsPeriod>
        <frequency value="1"/>
        <period value="1"/>
        <periodUnits value="d"/>
      </repeat>
      
    </timing>
    <doseQuantity>
      <value value="1"/>
      <unit value="{tablet}"/>
      <system value="http://unitsofmeasure.org"/>
      <code value="{tablet}"/>
    </doseQuantity>
    
    <text value="1 qhs"/>
  </dosageInstruction>
  <dispenseRequest>
     <numberOfRepeatsAllowed value="1"/>
     
     <quantity>
        <value value="30"/>
        <unit value="{tablet}"/>
        <system value="http://unitsofmeasure.org"/>
        <code value="{tablet}"/>
     </quantity>
     
     <expectedSupplyDuration>
        <value value="30"/>
        <unit value="days"/>
        <system value="http://unitsofmeasure.org"/>
        <code value="d"/>
     </expectedSupplyDuration>
     
  </dispenseRequest>
  
</MedicationOrder>

  </resource>
  <request>
    <method value="POST"/>
    <url value="MedicationOrder/58"/>
  </request>
</entry>
<entry>
  <resource>
    
    
<MedicationDispense>
  <id value="554"/>
  <!--  insert contents here  -->
   <text>
    <status value="generated"/>
    <div xmlns="http://www.w3.org/1999/xhtml">
      Dispensed 30 tablets = 30 day supply of ezetimibe 10 MG / Simvastatin 40 MG Oral Tablet [Vytorin]
    </div>
  </text>

  <status value="completed"/>

  <patient>
    <reference value="Patient/767980"/>
  </patient>

  <authorizingPrescription>
    <reference value="MedicationOrder/58"/>
  </authorizingPrescription>

  <quantity>
      <value value="30"/>
      <unit value="tablets"/>
      <system value="http://unitsofmeasure.org"/>
      <code value="{tablets}"/>
  </quantity>

  <daysSupply>
      <value value="30" />
      <unit value="days" />
      <system value="http://unitsofmeasure.org" />
      <code value="d" />
  </daysSupply>

  <medicationCodeableConcept>
    <coding>
        <system value="http://www.nlm.nih.gov/research/umls/rxnorm"/>
        <code value="543354"/>
        <display value="ezetimibe 10 MG / Simvastatin 40 MG Oral Tablet [Vytorin]"/>
    </coding>
    <text value="ezetimibe 10 MG / Simvastatin 40 MG Oral Tablet [Vytorin]"/>
  </medicationCodeableConcept>

  <whenHandedOver value="2005-12-17"/>

</MedicationDispense>

  </resource>
  <request>
    <method value="POST"/>
    <url value="MedicationDispense/554"/>
  </request>
</entry>
<entry>
  <resource>
    
    
<MedicationOrder>
  <id value="59"/>
  <text>
    <status value="generated"/>
    <div xmlns="http://www.w3.org/1999/xhtml">
      ezetimibe 10 MG Oral Tablet [Zetia] (rxnorm: 352304)
    </div>
  </text>

  <status value="active" />
  <patient>
    <reference value="Patient/767980"/>
  </patient>

  <medicationCodeableConcept>
    <coding>
        <system value="http://www.nlm.nih.gov/research/umls/rxnorm"/>
        <code value="352304"/>
        <display value="ezetimibe 10 MG Oral Tablet [Zetia]"/>
    </coding>
    <text value="ezetimibe 10 MG Oral Tablet [Zetia]"/>
  </medicationCodeableConcept>

  <dosageInstruction>
    <timing>
      <repeat>
        <boundsPeriod>
          <start value="2006-01-06"/>
        </boundsPeriod>
        <frequency value="1"/>
        <period value="1"/>
        <periodUnits value="d"/>
      </repeat>
      
    </timing>
    <doseQuantity>
      <value value="1"/>
      <unit value="{tablet}"/>
      <system value="http://unitsofmeasure.org"/>
      <code value="{tablet}"/>
    </doseQuantity>
    
    <text value="1 daily"/>
  </dosageInstruction>
  <dispenseRequest>
     <numberOfRepeatsAllowed value="1"/>
     
     <quantity>
        <value value="30"/>
        <unit value="{tablet}"/>
        <system value="http://unitsofmeasure.org"/>
        <code value="{tablet}"/>
     </quantity>
     
     <expectedSupplyDuration>
        <value value="30"/>
        <unit value="days"/>
        <system value="http://unitsofmeasure.org"/>
        <code value="d"/>
     </expectedSupplyDuration>
     
  </dispenseRequest>
  
</MedicationOrder>

  </resource>
  <request>
    <method value="POST"/>
    <url value="MedicationOrder/59"/>
  </request>
</entry>
<entry>
  <resource>
    
    
<MedicationDispense>
  <id value="553"/>
  <!--  insert contents here  -->
   <text>
    <status value="generated"/>
    <div xmlns="http://www.w3.org/1999/xhtml">
      Dispensed 30 tablets = 30 day supply of ezetimibe 10 MG Oral Tablet [Zetia]
    </div>
  </text>

  <status value="completed"/>

  <patient>
    <reference value="Patient/767980"/>
  </patient>

  <authorizingPrescription>
    <reference value="MedicationOrder/59"/>
  </authorizingPrescription>

  <quantity>
      <value value="30"/>
      <unit value="tablets"/>
      <system value="http://unitsofmeasure.org"/>
      <code value="{tablets}"/>
  </quantity>

  <daysSupply>
      <value value="30" />
      <unit value="days" />
      <system value="http://unitsofmeasure.org" />
      <code value="d" />
  </daysSupply>

  <medicationCodeableConcept>
    <coding>
        <system value="http://www.nlm.nih.gov/research/umls/rxnorm"/>
        <code value="352304"/>
        <display value="ezetimibe 10 MG Oral Tablet [Zetia]"/>
    </coding>
    <text value="ezetimibe 10 MG Oral Tablet [Zetia]"/>
  </medicationCodeableConcept>

  <whenHandedOver value="2006-01-09"/>

</MedicationDispense>

  </resource>
  <request>
    <method value="POST"/>
    <url value="MedicationDispense/553"/>
  </request>
</entry>
<entry>
  <resource>
    
    
<MedicationDispense>
  <id value="552"/>
  <!--  insert contents here  -->
   <text>
    <status value="generated"/>
    <div xmlns="http://www.w3.org/1999/xhtml">
      Dispensed 30 tablets = 30 day supply of ezetimibe 10 MG Oral Tablet [Zetia]
    </div>
  </text>

  <status value="completed"/>

  <patient>
    <reference value="Patient/767980"/>
  </patient>

  <authorizingPrescription>
    <reference value="MedicationOrder/59"/>
  </authorizingPrescription>

  <quantity>
      <value value="30"/>
      <unit value="tablets"/>
      <system value="http://unitsofmeasure.org"/>
      <code value="{tablets}"/>
  </quantity>

  <daysSupply>
      <value value="30" />
      <unit value="days" />
      <system value="http://unitsofmeasure.org" />
      <code value="d" />
  </daysSupply>

  <medicationCodeableConcept>
    <coding>
        <system value="http://www.nlm.nih.gov/research/umls/rxnorm"/>
        <code value="352304"/>
        <display value="ezetimibe 10 MG Oral Tablet [Zetia]"/>
    </coding>
    <text value="ezetimibe 10 MG Oral Tablet [Zetia]"/>
  </medicationCodeableConcept>

  <whenHandedOver value="2006-01-06"/>

</MedicationDispense>

  </resource>
  <request>
    <method value="POST"/>
    <url value="MedicationDispense/552"/>
  </request>
</entry>
<entry>
  <resource>
    
    
<MedicationOrder>
  <id value="60"/>
  <text>
    <status value="generated"/>
    <div xmlns="http://www.w3.org/1999/xhtml">
      rosuvastatin 10 MG Oral Tablet [Crestor] (rxnorm: 859749)
    </div>
  </text>

  <status value="active" />
  <patient>
    <reference value="Patient/767980"/>
  </patient>

  <medicationCodeableConcept>
    <coding>
        <system value="http://www.nlm.nih.gov/research/umls/rxnorm"/>
        <code value="859749"/>
        <display value="rosuvastatin 10 MG Oral Tablet [Crestor]"/>
    </coding>
    <text value="rosuvastatin 10 MG Oral Tablet [Crestor]"/>
  </medicationCodeableConcept>

  <dosageInstruction>
    <timing>
      <repeat>
        <boundsPeriod>
          <start value="2006-01-06"/>
        </boundsPeriod>
        <frequency value="1"/>
        <period value="1"/>
        <periodUnits value="d"/>
      </repeat>
      
    </timing>
    <doseQuantity>
      <value value="1"/>
      <unit value="{tablet}"/>
      <system value="http://unitsofmeasure.org"/>
      <code value="{tablet}"/>
    </doseQuantity>
    
    <text value="1 qhs"/>
  </dosageInstruction>
  <dispenseRequest>
     <numberOfRepeatsAllowed value="1"/>
     
     <quantity>
        <value value="30"/>
        <unit value="{tablet}"/>
        <system value="http://unitsofmeasure.org"/>
        <code value="{tablet}"/>
     </quantity>
     
     <expectedSupplyDuration>
        <value value="30"/>
        <unit value="days"/>
        <system value="http://unitsofmeasure.org"/>
        <code value="d"/>
     </expectedSupplyDuration>
     
  </dispenseRequest>
  
</MedicationOrder>

  </resource>
  <request>
    <method value="POST"/>
    <url value="MedicationOrder/60"/>
  </request>
</entry>
<entry>
  <resource>
    
    
<MedicationDispense>
  <id value="548"/>
  <!--  insert contents here  -->
   <text>
    <status value="generated"/>
    <div xmlns="http://www.w3.org/1999/xhtml">
      Dispensed 30 tablets = 30 day supply of rosuvastatin 10 MG Oral Tablet [Crestor]
    </div>
  </text>

  <status value="completed"/>

  <patient>
    <reference value="Patient/767980"/>
  </patient>

  <authorizingPrescription>
    <reference value="MedicationOrder/60"/>
  </authorizingPrescription>

  <quantity>
      <value value="30"/>
      <unit value="tablets"/>
      <system value="http://unitsofmeasure.org"/>
      <code value="{tablets}"/>
  </quantity>

  <daysSupply>
      <value value="30" />
      <unit value="days" />
      <system value="http://unitsofmeasure.org" />
      <code value="d" />
  </daysSupply>

  <medicationCodeableConcept>
    <coding>
        <system value="http://www.nlm.nih.gov/research/umls/rxnorm"/>
        <code value="859749"/>
        <display value="rosuvastatin 10 MG Oral Tablet [Crestor]"/>
    </coding>
    <text value="rosuvastatin 10 MG Oral Tablet [Crestor]"/>
  </medicationCodeableConcept>

  <whenHandedOver value="2006-01-06"/>

</MedicationDispense>

  </resource>
  <request>
    <method value="POST"/>
    <url value="MedicationDispense/548"/>
  </request>
</entry>
<entry>
  <resource>
    
    
<MedicationOrder>
  <id value="61"/>
  <text>
    <status value="generated"/>
    <div xmlns="http://www.w3.org/1999/xhtml">
      Acetaminophen 650 MG / propoxyphene napsylate 100 MG Oral Tablet (rxnorm: 828576)
    </div>
  </text>

  <status value="active" />
  <patient>
    <reference value="Patient/767980"/>
  </patient>

  <medicationCodeableConcept>
    <coding>
        <system value="http://www.nlm.nih.gov/research/umls/rxnorm"/>
        <code value="828576"/>
        <display value="Acetaminophen 650 MG / propoxyphene napsylate 100 MG Oral Tablet"/>
    </coding>
    <text value="Acetaminophen 650 MG / propoxyphene napsylate 100 MG Oral Tablet"/>
  </medicationCodeableConcept>

  <dosageInstruction>
    <timing>
      <repeat>
        <boundsPeriod>
          <start value="2009-08-14"/>
        </boundsPeriod>
        <frequency value="4"/>
        <period value="1"/>
        <periodUnits value="d"/>
      </repeat>
      
    </timing>
    <doseQuantity>
      <value value="1"/>
      <unit value="{tablet}"/>
      <system value="http://unitsofmeasure.org"/>
      <code value="{tablet}"/>
    </doseQuantity>
    
    <asNeededBoolean value="true"/>
    
    <text value="1 q6h prn pain"/>
  </dosageInstruction>
  <dispenseRequest>
     <numberOfRepeatsAllowed value="1"/>
     
     <quantity>
        <value value="20"/>
        <unit value="{tablet}"/>
        <system value="http://unitsofmeasure.org"/>
        <code value="{tablet}"/>
     </quantity>
     
     <expectedSupplyDuration>
        <value value="4"/>
        <unit value="days"/>
        <system value="http://unitsofmeasure.org"/>
        <code value="d"/>
     </expectedSupplyDuration>
     
  </dispenseRequest>
  
</MedicationOrder>

  </resource>
  <request>
    <method value="POST"/>
    <url value="MedicationOrder/61"/>
  </request>
</entry>
<entry>
  <resource>
    
    
<MedicationDispense>
  <id value="541"/>
  <!--  insert contents here  -->
   <text>
    <status value="generated"/>
    <div xmlns="http://www.w3.org/1999/xhtml">
      Dispensed 20 tablets = 4 day supply of Acetaminophen 650 MG / propoxyphene napsylate 100 MG Oral Tablet
    </div>
  </text>

  <status value="completed"/>

  <patient>
    <reference value="Patient/767980"/>
  </patient>

  <authorizingPrescription>
    <reference value="MedicationOrder/61"/>
  </authorizingPrescription>

  <quantity>
      <value value="20"/>
      <unit value="tablets"/>
      <system value="http://unitsofmeasure.org"/>
      <code value="{tablets}"/>
  </quantity>

  <daysSupply>
      <value value="4" />
      <unit value="days" />
      <system value="http://unitsofmeasure.org" />
      <code value="d" />
  </daysSupply>

  <medicationCodeableConcept>
    <coding>
        <system value="http://www.nlm.nih.gov/research/umls/rxnorm"/>
        <code value="828576"/>
        <display value="Acetaminophen 650 MG / propoxyphene napsylate 100 MG Oral Tablet"/>
    </coding>
    <text value="Acetaminophen 650 MG / propoxyphene napsylate 100 MG Oral Tablet"/>
  </medicationCodeableConcept>

  <whenHandedOver value="2009-08-14"/>

</MedicationDispense>

  </resource>
  <request>
    <method value="POST"/>
    <url value="MedicationDispense/541"/>
  </request>
</entry>
  <entry>
  <resource>
    
    
  <Condition>
  <id value="247"/>
    <text>
     <status value="generated"/>
     <div xmlns="http://www.w3.org/1999/xhtml">Chest pain</div>   
   </text>
    <patient>
      <reference value="Patient/767980"/>
    </patient>
    <code> 
      <coding>
        <system value="http://snomed.info/sct"/>
        <code value="29857009"/>
        <display value="Chest pain"/>
      </coding>
      <text value="Chest pain"/>
    </code>
   <clinicalStatus value="confirmed"/>
   <onsetDateTime value="2004-08-12"/>
   
  </Condition>
  
  </resource>
  <request>
    <method value="POST"/>
    <url value="Condition/247"/>
  </request>
</entry>
  <entry>
  <resource>
    
    
  <Condition>
  <id value="248"/>
    <text>
     <status value="generated"/>
     <div xmlns="http://www.w3.org/1999/xhtml">Essential hypertension</div>   
   </text>
    <patient>
      <reference value="Patient/767980"/>
    </patient>
    <code> 
      <coding>
        <system value="http://snomed.info/sct"/>
        <code value="38341003"/>
        <display value="Essential hypertension"/>
      </coding>
      <text value="Essential hypertension"/>
    </code>
   <clinicalStatus value="confirmed"/>
   <onsetDateTime value="2004-08-12"/>
   
  </Condition>
  
  </resource>
  <request>
    <method value="POST"/>
    <url value="Condition/248"/>
  </request>
</entry>
  <entry>
  <resource>
    
    
  <Condition>
  <id value="249"/>
    <text>
     <status value="generated"/>
     <div xmlns="http://www.w3.org/1999/xhtml">H/O: peptic ulcer</div>   
   </text>
    <patient>
      <reference value="Patient/767980"/>
    </patient>
    <code> 
      <coding>
        <system value="http://snomed.info/sct"/>
        <code value="266998003"/>
        <display value="H/O: peptic ulcer"/>
      </coding>
      <text value="H/O: peptic ulcer"/>
    </code>
   <clinicalStatus value="confirmed"/>
   <onsetDateTime value="2004-08-12"/>
   
  </Condition>
  
  </resource>
  <request>
    <method value="POST"/>
    <url value="Condition/249"/>
  </request>
</entry>
  <entry>
  <resource>
    
    
  <Condition>
  <id value="250"/>
    <text>
     <status value="generated"/>
     <div xmlns="http://www.w3.org/1999/xhtml">Painful respiration</div>   
   </text>
    <patient>
      <reference value="Patient/767980"/>
    </patient>
    <code> 
      <coding>
        <system value="http://snomed.info/sct"/>
        <code value="102588006"/>
        <display value="Painful respiration"/>
      </coding>
      <text value="Painful respiration"/>
    </code>
   <clinicalStatus value="confirmed"/>
   <onsetDateTime value="2004-08-12"/>
   
  </Condition>
  
  </resource>
  <request>
    <method value="POST"/>
    <url value="Condition/250"/>
  </request>
</entry>
  <entry>
  <resource>
    
    
  <Condition>
  <id value="251"/>
    <text>
     <status value="generated"/>
     <div xmlns="http://www.w3.org/1999/xhtml">Pure hypercholesterolemia</div>   
   </text>
    <patient>
      <reference value="Patient/767980"/>
    </patient>
    <code> 
      <coding>
        <system value="http://snomed.info/sct"/>
        <code value="267432004"/>
        <display value="Pure hypercholesterolemia"/>
      </coding>
      <text value="Pure hypercholesterolemia"/>
    </code>
   <clinicalStatus value="confirmed"/>
   <onsetDateTime value="2004-08-12"/>
   
  </Condition>
  
  </resource>
  <request>
    <method value="POST"/>
    <url value="Condition/251"/>
  </request>
</entry>
  <entry>
  <resource>
    
    
  <Condition>
  <id value="252"/>
    <text>
     <status value="generated"/>
     <div xmlns="http://www.w3.org/1999/xhtml">Tobacco dependence syndrome</div>   
   </text>
    <patient>
      <reference value="Patient/767980"/>
    </patient>
    <code> 
      <coding>
        <system value="http://snomed.info/sct"/>
        <code value="89765005"/>
        <display value="Tobacco dependence syndrome"/>
      </coding>
      <text value="Tobacco dependence syndrome"/>
    </code>
   <clinicalStatus value="confirmed"/>
   <onsetDateTime value="2004-08-12"/>
   
  </Condition>
  
  </resource>
  <request>
    <method value="POST"/>
    <url value="Condition/252"/>
  </request>
</entry>
  <entry>
  <resource>
    
    
  <Condition>
  <id value="253"/>
    <text>
     <status value="generated"/>
     <div xmlns="http://www.w3.org/1999/xhtml">Bronchitis</div>   
   </text>
    <patient>
      <reference value="Patient/767980"/>
    </patient>
    <code> 
      <coding>
        <system value="http://snomed.info/sct"/>
        <code value="32398004"/>
        <display value="Bronchitis"/>
      </coding>
      <text value="Bronchitis"/>
    </code>
   <clinicalStatus value="confirmed"/>
   <onsetDateTime value="2004-10-18"/>
   
  </Condition>
  
  </resource>
  <request>
    <method value="POST"/>
    <url value="Condition/253"/>
  </request>
</entry>
  <entry>
  <resource>
    
    
  <Condition>
  <id value="254"/>
    <text>
     <status value="generated"/>
     <div xmlns="http://www.w3.org/1999/xhtml">Blood chemistry abnormal</div>   
   </text>
    <patient>
      <reference value="Patient/767980"/>
    </patient>
    <code> 
      <coding>
        <system value="http://snomed.info/sct"/>
        <code value="80394007"/>
        <display value="Blood chemistry abnormal"/>
      </coding>
      <text value="Blood chemistry abnormal"/>
    </code>
   <clinicalStatus value="confirmed"/>
   <onsetDateTime value="2004-10-22"/>
   
  </Condition>
  
  </resource>
  <request>
    <method value="POST"/>
    <url value="Condition/254"/>
  </request>
</entry>
  <entry>
  <resource>
    
    
  <Condition>
  <id value="255"/>
    <text>
     <status value="generated"/>
     <div xmlns="http://www.w3.org/1999/xhtml">Acute upper respiratory infection</div>   
   </text>
    <patient>
      <reference value="Patient/767980"/>
    </patient>
    <code> 
      <coding>
        <system value="http://snomed.info/sct"/>
        <code value="54150009"/>
        <display value="Acute upper respiratory infection"/>
      </coding>
      <text value="Acute upper respiratory infection"/>
    </code>
   <clinicalStatus value="confirmed"/>
   <onsetDateTime value="2004-12-10"/>
   
  </Condition>
  
  </resource>
  <request>
    <method value="POST"/>
    <url value="Condition/255"/>
  </request>
</entry>
  <entry>
  <resource>
    
    
  <Condition>
  <id value="256"/>
    <text>
     <status value="generated"/>
     <div xmlns="http://www.w3.org/1999/xhtml">Diabetes mellitus type 2</div>   
   </text>
    <patient>
      <reference value="Patient/767980"/>
    </patient>
    <code> 
      <coding>
        <system value="http://snomed.info/sct"/>
        <code value="44054006"/>
        <display value="Diabetes mellitus type 2"/>
      </coding>
      <text value="Diabetes mellitus type 2"/>
    </code>
   <clinicalStatus value="confirmed"/>
   <onsetDateTime value="2004-12-10"/>
   
  </Condition>
  
  </resource>
  <request>
    <method value="POST"/>
    <url value="Condition/256"/>
  </request>
</entry>
  <entry>
  <resource>
    
    
  <Condition>
  <id value="257"/>
    <text>
     <status value="generated"/>
     <div xmlns="http://www.w3.org/1999/xhtml">Needs influenza immunization</div>   
   </text>
    <patient>
      <reference value="Patient/767980"/>
    </patient>
    <code> 
      <coding>
        <system value="http://snomed.info/sct"/>
        <code value="185903001"/>
        <display value="Needs influenza immunization"/>
      </coding>
      <text value="Needs influenza immunization"/>
    </code>
   <clinicalStatus value="confirmed"/>
   <onsetDateTime value="2005-09-08"/>
   
  </Condition>
  
  </resource>
  <request>
    <method value="POST"/>
    <url value="Condition/257"/>
  </request>
</entry>
  <entry>
  <resource>
    
    
  <Condition>
  <id value="258"/>
    <text>
     <status value="generated"/>
     <div xmlns="http://www.w3.org/1999/xhtml">Incomplete emptying of bladder</div>   
   </text>
    <patient>
      <reference value="Patient/767980"/>
    </patient>
    <code> 
      <coding>
        <system value="http://snomed.info/sct"/>
        <code value="249288007"/>
        <display value="Incomplete emptying of bladder"/>
      </coding>
      <text value="Incomplete emptying of bladder"/>
    </code>
   <clinicalStatus value="confirmed"/>
   <onsetDateTime value="2005-12-16"/>
   
  </Condition>
  
  </resource>
  <request>
    <method value="POST"/>
    <url value="Condition/258"/>
  </request>
</entry>
<entry>
  <resource>
    
    
  <Observation>
  <id value="14-smokingstatus"/>
    <text>
      <status value="generated"/>
      <div xmlns="http://www.w3.org/1999/xhtml">Tobacco smoking status: Current some day smoker</div>
    </text>
    <code>
      <coding>
        <system value="http://loinc.org"/>
        <code value="72166-2"/>
        <display value="Tobacco smoking status"/>
      </coding>
      <text value="Tobacco smoking status"/>
    </code>
    <valueCodeableConcept>
      <coding>
        <system value="http://snomed.info/sct"/>
        <code value="428041000124106"/>
        <display value="Current some day smoker"/>
      </coding>
      <text value="Current some day smoker"/>
    </valueCodeableConcept>
    <status value="final"/>
    <subject>
      <reference value="Patient/767980"/>
    </subject>
  </Observation>
  
  </resource>
  <request>
    <method value="POST"/>
    <url value="Observation/14-smokingstatus"/>
  </request>
</entry>
  <entry>
  <resource>
    
    
    <List>
  <id value="12"/>
        <text>
            <status value="generated"/>
            <div xmlns="http://www.w3.org/1999/xhtml">No known allergies</div>
        </text>
        <code>
            <coding>
               <system value="http://loinc.org/"/>
               <code value="52473-6"/>
               <display value="Allergy"/>
            </coding>
            <text value="Allergy"/>
        </code>
        <subject>
          <reference value="Patient/767980"/>
        </subject>
        <date value="2000"/>
        <mode value="snapshot"/>
        <emptyReason>
            <coding>
                <system value="http://hl7.org/fhir/list-empty-reason"/>
                <code value="nilknown"/>
                <display value="Nil Known"/>
            </coding>
            <text value="Nil Known"/>
        </emptyReason>
    </List>
  
  </resource>
  <request>
    <method value="POST"/>
    <url value="List/12"/>
  </request>
</entry>

</Bundle>
