<?xml version="1.0" encoding="UTF-8"?>
<Bundle xmlns="http://hl7.org/fhir">
    <type value="transaction"/>

  <entry>
  <resource>
    
    
  <Patient>
    <id value="1768562"/>
    <text>
      <status value="generated"/>
      <div xmlns="http://www.w3.org/1999/xhtml">
        <p>Carl Lee</p>
      </div>
    </text>
    <identifier>
      <use value="usual"/>
      <type>
        <coding>
          <system value="http://hl7.org/fhir/v2/0203"/>
          <code value="MR"/>
          <display value="Medical record number"/>
        </coding>
        <text value="Medical record number"/>
      </type>
      <system value="http://hospital.smarthealthit.org"/>
      <value value="1768562"/>
    </identifier>
    <name>
      <use value="official"/>
      <family value="Lee"/>
      <given value="Carl"/>
      <given value="U."/>
    </name>
    <telecom>
      <system value="email"/>
      <value value="carl.lee@example.com"/>
    </telecom>
    <gender value="male" />
    <birthDate value="1939-08-30" />
    <address>
      <use value="home"/>
      <line value="11 Sunset Rd"/>
      <city value="Mounds"/>
      <state value="OK"/>
      <postalCode value="74047"/>
      <country value="USA"/>
    </address>
    <active value="true"/>
  </Patient>
  
  </resource>
  <request>
    <method value="POST"/>
    <url value="Patient/1768562"/>
  </request>
</entry>
<entry>
  <resource>
    
    
  <Observation>
  <id value="1457-lab"/>
    <text>
      <status value="generated"/>
      <div xmlns="http://www.w3.org/1999/xhtml">2003-11-30: Platelet # Bld = 222 10*3/uL</div>
    </text>
    <code>
      <coding>
        <system value="http://loinc.org"/>
        <code value="26515-7"/>
        <display value="Platelet # Bld"/>
      </coding>
      <text value="Platelet # Bld"/>
    </code>
    <valueQuantity>
      <value value="222.0"/>
      <unit value="10*3/uL"/>
      <system value="http://unitsofmeasure.org" />
      <code value=""/>
    </valueQuantity>
    
    <effectiveDateTime value="2003-11-30"/>
    <status value="final"/>
    <subject>
      <reference value="Patient/1768562"/>
    </subject>
    <referenceRange>
      <meaning>
        <coding>
         <system value="http://hl7.org/fhir/referencerange-meaning"/>
         <code value="normal"/>
         <display value="Normal Range"/>
       </coding>
       <text value="Normal Range"/>
      </meaning>
      <low>
        <value value="150.0"/>
        <unit value="10*3/uL"/>
        <code value="10*3/uL"/>
        <system value="http://unitsofmeasure.org"/>
      </low>
      <high>
        <value value="450.0"/>
        <unit value="10*3/uL"/>
        <code value="10*3/uL"/>
        <system value="http://unitsofmeasure.org"/>
      </high>
    </referenceRange>
    
  </Observation>
  
  </resource>
  <request>
    <method value="POST"/>
    <url value="Observation/1457-lab"/>
  </request>
</entry>
<entry>
  <resource>
    
    
  <Observation>
  <id value="1458-lab"/>
    <text>
      <status value="generated"/>
      <div xmlns="http://www.w3.org/1999/xhtml">2003-11-30: Calcium SerPl-mCnc = 9.4 mg/dL</div>
    </text>
    <code>
      <coding>
        <system value="http://loinc.org"/>
        <code value="17861-6"/>
        <display value="Calcium SerPl-mCnc"/>
      </coding>
      <text value="Calcium SerPl-mCnc"/>
    </code>
    <valueQuantity>
      <value value="9.4"/>
      <unit value="mg/dL"/>
      <system value="http://unitsofmeasure.org" />
      <code value=""/>
    </valueQuantity>
    
    <effectiveDateTime value="2003-11-30"/>
    <status value="final"/>
    <subject>
      <reference value="Patient/1768562"/>
    </subject>
    <referenceRange>
      <meaning>
        <coding>
         <system value="http://hl7.org/fhir/referencerange-meaning"/>
         <code value="normal"/>
         <display value="Normal Range"/>
       </coding>
       <text value="Normal Range"/>
      </meaning>
      <low>
        <value value="8.4"/>
        <unit value="mg/dL"/>
        <code value="mg/dL"/>
        <system value="http://unitsofmeasure.org"/>
      </low>
      <high>
        <value value="10.2"/>
        <unit value="mg/dL"/>
        <code value="mg/dL"/>
        <system value="http://unitsofmeasure.org"/>
      </high>
    </referenceRange>
    
  </Observation>
  
  </resource>
  <request>
    <method value="POST"/>
    <url value="Observation/1458-lab"/>
  </request>
</entry>
<entry>
  <resource>
    
    
  <Observation>
  <id value="1459-lab"/>
    <text>
      <status value="generated"/>
      <div xmlns="http://www.w3.org/1999/xhtml">2003-11-30: RDW RBC-Rto = 13.5 %</div>
    </text>
    <code>
      <coding>
        <system value="http://loinc.org"/>
        <code value="30385-9"/>
        <display value="RDW RBC-Rto"/>
      </coding>
      <text value="RDW RBC-Rto"/>
    </code>
    <valueQuantity>
      <value value="13.5"/>
      <unit value="%"/>
      <system value="http://unitsofmeasure.org" />
      <code value=""/>
    </valueQuantity>
    
    <effectiveDateTime value="2003-11-30"/>
    <status value="final"/>
    <subject>
      <reference value="Patient/1768562"/>
    </subject>
    <referenceRange>
      <meaning>
        <coding>
         <system value="http://hl7.org/fhir/referencerange-meaning"/>
         <code value="normal"/>
         <display value="Normal Range"/>
       </coding>
       <text value="Normal Range"/>
      </meaning>
      <low>
        <value value="11.5"/>
        <unit value="%"/>
        <code value="%"/>
        <system value="http://unitsofmeasure.org"/>
      </low>
      <high>
        <value value="14.0"/>
        <unit value="%"/>
        <code value="%"/>
        <system value="http://unitsofmeasure.org"/>
      </high>
    </referenceRange>
    
  </Observation>
  
  </resource>
  <request>
    <method value="POST"/>
    <url value="Observation/1459-lab"/>
  </request>
</entry>
<entry>
  <resource>
    
    
  <Observation>
  <id value="1460-lab"/>
    <text>
      <status value="generated"/>
      <div xmlns="http://www.w3.org/1999/xhtml">2003-11-30: PMV Bld = 7.6 fL</div>
    </text>
    <code>
      <coding>
        <system value="http://loinc.org"/>
        <code value="28542-9"/>
        <display value="PMV Bld"/>
      </coding>
      <text value="PMV Bld"/>
    </code>
    <valueQuantity>
      <value value="7.6"/>
      <unit value="fL"/>
      <system value="http://unitsofmeasure.org" />
      <code value=""/>
    </valueQuantity>
    
    <effectiveDateTime value="2003-11-30"/>
    <status value="final"/>
    <subject>
      <reference value="Patient/1768562"/>
    </subject>
    <referenceRange>
      <meaning>
        <coding>
         <system value="http://hl7.org/fhir/referencerange-meaning"/>
         <code value="normal"/>
         <display value="Normal Range"/>
       </coding>
       <text value="Normal Range"/>
      </meaning>
      <low>
        <value value="6.0"/>
        <unit value="fL"/>
        <code value="fL"/>
        <system value="http://unitsofmeasure.org"/>
      </low>
      <high>
        <value value="9.5"/>
        <unit value="fL"/>
        <code value="fL"/>
        <system value="http://unitsofmeasure.org"/>
      </high>
    </referenceRange>
    
  </Observation>
  
  </resource>
  <request>
    <method value="POST"/>
    <url value="Observation/1460-lab"/>
  </request>
</entry>
<entry>
  <resource>
    
    
  <Observation>
  <id value="1461-lab"/>
    <text>
      <status value="generated"/>
      <div xmlns="http://www.w3.org/1999/xhtml">2003-11-30: BNP SerPl-mCnc = 834 pg/mL</div>
    </text>
    <code>
      <coding>
        <system value="http://loinc.org"/>
        <code value="30934-4"/>
        <display value="BNP SerPl-mCnc"/>
      </coding>
      <text value="BNP SerPl-mCnc"/>
    </code>
    <valueQuantity>
      <value value="834.0"/>
      <unit value="pg/mL"/>
      <system value="http://unitsofmeasure.org" />
      <code value=""/>
    </valueQuantity>
    
    <effectiveDateTime value="2003-11-30"/>
    <status value="final"/>
    <subject>
      <reference value="Patient/1768562"/>
    </subject>
    <referenceRange>
      <meaning>
        <coding>
         <system value="http://hl7.org/fhir/referencerange-meaning"/>
         <code value="normal"/>
         <display value="Normal Range"/>
       </coding>
       <text value="Normal Range"/>
      </meaning>
      <low>
        <value value="0.0"/>
        <unit value="pg/mL"/>
        <code value="pg/mL"/>
        <system value="http://unitsofmeasure.org"/>
      </low>
      <high>
        <value value="100.0"/>
        <unit value="pg/mL"/>
        <code value="pg/mL"/>
        <system value="http://unitsofmeasure.org"/>
      </high>
    </referenceRange>
    
  </Observation>
  
  </resource>
  <request>
    <method value="POST"/>
    <url value="Observation/1461-lab"/>
  </request>
</entry>
<entry>
  <resource>
    
    
  <Observation>
  <id value="1462-lab"/>
    <text>
      <status value="generated"/>
      <div xmlns="http://www.w3.org/1999/xhtml">2003-11-30: BUN SerPl-mCnc = 17 mg/dL</div>
    </text>
    <code>
      <coding>
        <system value="http://loinc.org"/>
        <code value="3094-0"/>
        <display value="BUN SerPl-mCnc"/>
      </coding>
      <text value="BUN SerPl-mCnc"/>
    </code>
    <valueQuantity>
      <value value="17.0"/>
      <unit value="mg/dL"/>
      <system value="http://unitsofmeasure.org" />
      <code value=""/>
    </valueQuantity>
    
    <effectiveDateTime value="2003-11-30"/>
    <status value="final"/>
    <subject>
      <reference value="Patient/1768562"/>
    </subject>
    <referenceRange>
      <meaning>
        <coding>
         <system value="http://hl7.org/fhir/referencerange-meaning"/>
         <code value="normal"/>
         <display value="Normal Range"/>
       </coding>
       <text value="Normal Range"/>
      </meaning>
      <low>
        <value value="9.0"/>
        <unit value="mg/dL"/>
        <code value="mg/dL"/>
        <system value="http://unitsofmeasure.org"/>
      </low>
      <high>
        <value value="20.0"/>
        <unit value="mg/dL"/>
        <code value="mg/dL"/>
        <system value="http://unitsofmeasure.org"/>
      </high>
    </referenceRange>
    
  </Observation>
  
  </resource>
  <request>
    <method value="POST"/>
    <url value="Observation/1462-lab"/>
  </request>
</entry>
<entry>
  <resource>
    
    
  <Observation>
  <id value="1463-lab"/>
    <text>
      <status value="generated"/>
      <div xmlns="http://www.w3.org/1999/xhtml">2003-11-30: Glucose SerPl-mCnc = 89 mg/dL</div>
    </text>
    <code>
      <coding>
        <system value="http://loinc.org"/>
        <code value="2345-7"/>
        <display value="Glucose SerPl-mCnc"/>
      </coding>
      <text value="Glucose SerPl-mCnc"/>
    </code>
    <valueQuantity>
      <value value="89.0"/>
      <unit value="mg/dL"/>
      <system value="http://unitsofmeasure.org" />
      <code value=""/>
    </valueQuantity>
    
    <effectiveDateTime value="2003-11-30"/>
    <status value="final"/>
    <subject>
      <reference value="Patient/1768562"/>
    </subject>
    <referenceRange>
      <meaning>
        <coding>
         <system value="http://hl7.org/fhir/referencerange-meaning"/>
         <code value="normal"/>
         <display value="Normal Range"/>
       </coding>
       <text value="Normal Range"/>
      </meaning>
      <low>
        <value value="70.0"/>
        <unit value="mg/dL"/>
        <code value="mg/dL"/>
        <system value="http://unitsofmeasure.org"/>
      </low>
      <high>
        <value value="110.0"/>
        <unit value="mg/dL"/>
        <code value="mg/dL"/>
        <system value="http://unitsofmeasure.org"/>
      </high>
    </referenceRange>
    
  </Observation>
  
  </resource>
  <request>
    <method value="POST"/>
    <url value="Observation/1463-lab"/>
  </request>
</entry>
<entry>
  <resource>
    
    
  <Observation>
  <id value="1464-lab"/>
    <text>
      <status value="generated"/>
      <div xmlns="http://www.w3.org/1999/xhtml">2003-11-30: RBC # Bld Auto = 4.69 10*6/uL</div>
    </text>
    <code>
      <coding>
        <system value="http://loinc.org"/>
        <code value="789-8"/>
        <display value="RBC # Bld Auto"/>
      </coding>
      <text value="RBC # Bld Auto"/>
    </code>
    <valueQuantity>
      <value value="4.69"/>
      <unit value="10*6/uL"/>
      <system value="http://unitsofmeasure.org" />
      <code value=""/>
    </valueQuantity>
    
    <effectiveDateTime value="2003-11-30"/>
    <status value="final"/>
    <subject>
      <reference value="Patient/1768562"/>
    </subject>
    <referenceRange>
      <meaning>
        <coding>
         <system value="http://hl7.org/fhir/referencerange-meaning"/>
         <code value="normal"/>
         <display value="Normal Range"/>
       </coding>
       <text value="Normal Range"/>
      </meaning>
      <low>
        <value value="4.7"/>
        <unit value="10*6/uL"/>
        <code value="10*6/uL"/>
        <system value="http://unitsofmeasure.org"/>
      </low>
      <high>
        <value value="6.0"/>
        <unit value="10*6/uL"/>
        <code value="10*6/uL"/>
        <system value="http://unitsofmeasure.org"/>
      </high>
    </referenceRange>
    
  </Observation>
  
  </resource>
  <request>
    <method value="POST"/>
    <url value="Observation/1464-lab"/>
  </request>
</entry>
<entry>
  <resource>
    
    
  <Observation>
  <id value="1465-lab"/>
    <text>
      <status value="generated"/>
      <div xmlns="http://www.w3.org/1999/xhtml">2003-11-30: WBC # Bld = 8.5 10*3/uL</div>
    </text>
    <code>
      <coding>
        <system value="http://loinc.org"/>
        <code value="26464-8"/>
        <display value="WBC # Bld"/>
      </coding>
      <text value="WBC # Bld"/>
    </code>
    <valueQuantity>
      <value value="8.5"/>
      <unit value="10*3/uL"/>
      <system value="http://unitsofmeasure.org" />
      <code value=""/>
    </valueQuantity>
    
    <effectiveDateTime value="2003-11-30"/>
    <status value="final"/>
    <subject>
      <reference value="Patient/1768562"/>
    </subject>
    <referenceRange>
      <meaning>
        <coding>
         <system value="http://hl7.org/fhir/referencerange-meaning"/>
         <code value="normal"/>
         <display value="Normal Range"/>
       </coding>
       <text value="Normal Range"/>
      </meaning>
      <low>
        <value value="4.0"/>
        <unit value="10*3/uL"/>
        <code value="10*3/uL"/>
        <system value="http://unitsofmeasure.org"/>
      </low>
      <high>
        <value value="10.5"/>
        <unit value="10*3/uL"/>
        <code value="10*3/uL"/>
        <system value="http://unitsofmeasure.org"/>
      </high>
    </referenceRange>
    
  </Observation>
  
  </resource>
  <request>
    <method value="POST"/>
    <url value="Observation/1465-lab"/>
  </request>
</entry>
<entry>
  <resource>
    
    
  <Observation>
  <id value="1466-lab"/>
    <text>
      <status value="generated"/>
      <div xmlns="http://www.w3.org/1999/xhtml">2003-11-30: Hgb Bld-mCnc = 14.2 g/dL</div>
    </text>
    <code>
      <coding>
        <system value="http://loinc.org"/>
        <code value="718-7"/>
        <display value="Hgb Bld-mCnc"/>
      </coding>
      <text value="Hgb Bld-mCnc"/>
    </code>
    <valueQuantity>
      <value value="14.2"/>
      <unit value="g/dL"/>
      <system value="http://unitsofmeasure.org" />
      <code value=""/>
    </valueQuantity>
    
    <effectiveDateTime value="2003-11-30"/>
    <status value="final"/>
    <subject>
      <reference value="Patient/1768562"/>
    </subject>
    <referenceRange>
      <meaning>
        <coding>
         <system value="http://hl7.org/fhir/referencerange-meaning"/>
         <code value="normal"/>
         <display value="Normal Range"/>
       </coding>
       <text value="Normal Range"/>
      </meaning>
      <low>
        <value value="13.5"/>
        <unit value="g/dL"/>
        <code value="g/dL"/>
        <system value="http://unitsofmeasure.org"/>
      </low>
      <high>
        <value value="18.0"/>
        <unit value="g/dL"/>
        <code value="g/dL"/>
        <system value="http://unitsofmeasure.org"/>
      </high>
    </referenceRange>
    
  </Observation>
  
  </resource>
  <request>
    <method value="POST"/>
    <url value="Observation/1466-lab"/>
  </request>
</entry>
<entry>
  <resource>
    
    
  <Observation>
  <id value="1467-lab"/>
    <text>
      <status value="generated"/>
      <div xmlns="http://www.w3.org/1999/xhtml">2003-11-30: Chloride SerPl-sCnc = 107 mmol/L</div>
    </text>
    <code>
      <coding>
        <system value="http://loinc.org"/>
        <code value="2075-0"/>
        <display value="Chloride SerPl-sCnc"/>
      </coding>
      <text value="Chloride SerPl-sCnc"/>
    </code>
    <valueQuantity>
      <value value="107.0"/>
      <unit value="mmol/L"/>
      <system value="http://unitsofmeasure.org" />
      <code value=""/>
    </valueQuantity>
    
    <effectiveDateTime value="2003-11-30"/>
    <status value="final"/>
    <subject>
      <reference value="Patient/1768562"/>
    </subject>
    <referenceRange>
      <meaning>
        <coding>
         <system value="http://hl7.org/fhir/referencerange-meaning"/>
         <code value="normal"/>
         <display value="Normal Range"/>
       </coding>
       <text value="Normal Range"/>
      </meaning>
      <low>
        <value value="98.0"/>
        <unit value="mmol/L"/>
        <code value="mmol/L"/>
        <system value="http://unitsofmeasure.org"/>
      </low>
      <high>
        <value value="107.0"/>
        <unit value="mmol/L"/>
        <code value="mmol/L"/>
        <system value="http://unitsofmeasure.org"/>
      </high>
    </referenceRange>
    
  </Observation>
  
  </resource>
  <request>
    <method value="POST"/>
    <url value="Observation/1467-lab"/>
  </request>
</entry>
<entry>
  <resource>
    
    
  <Observation>
  <id value="1468-lab"/>
    <text>
      <status value="generated"/>
      <div xmlns="http://www.w3.org/1999/xhtml">2003-11-30: Potassium SerPl-sCnc = 4.2 mmol/L</div>
    </text>
    <code>
      <coding>
        <system value="http://loinc.org"/>
        <code value="2823-3"/>
        <display value="Potassium SerPl-sCnc"/>
      </coding>
      <text value="Potassium SerPl-sCnc"/>
    </code>
    <valueQuantity>
      <value value="4.2"/>
      <unit value="mmol/L"/>
      <system value="http://unitsofmeasure.org" />
      <code value=""/>
    </valueQuantity>
    
    <effectiveDateTime value="2003-11-30"/>
    <status value="final"/>
    <subject>
      <reference value="Patient/1768562"/>
    </subject>
    <referenceRange>
      <meaning>
        <coding>
         <system value="http://hl7.org/fhir/referencerange-meaning"/>
         <code value="normal"/>
         <display value="Normal Range"/>
       </coding>
       <text value="Normal Range"/>
      </meaning>
      <low>
        <value value="3.6"/>
        <unit value="mmol/L"/>
        <code value="mmol/L"/>
        <system value="http://unitsofmeasure.org"/>
      </low>
      <high>
        <value value="5.5"/>
        <unit value="mmol/L"/>
        <code value="mmol/L"/>
        <system value="http://unitsofmeasure.org"/>
      </high>
    </referenceRange>
    
  </Observation>
  
  </resource>
  <request>
    <method value="POST"/>
    <url value="Observation/1468-lab"/>
  </request>
</entry>
<entry>
  <resource>
    
    
  <Observation>
  <id value="1469-lab"/>
    <text>
      <status value="generated"/>
      <div xmlns="http://www.w3.org/1999/xhtml">2003-11-30: Creat SerPl-mCnc = 0.9 mg/dL</div>
    </text>
    <code>
      <coding>
        <system value="http://loinc.org"/>
        <code value="2160-0"/>
        <display value="Creat SerPl-mCnc"/>
      </coding>
      <text value="Creat SerPl-mCnc"/>
    </code>
    <valueQuantity>
      <value value="0.9"/>
      <unit value="mg/dL"/>
      <system value="http://unitsofmeasure.org" />
      <code value=""/>
    </valueQuantity>
    
    <effectiveDateTime value="2003-11-30"/>
    <status value="final"/>
    <subject>
      <reference value="Patient/1768562"/>
    </subject>
    <referenceRange>
      <meaning>
        <coding>
         <system value="http://hl7.org/fhir/referencerange-meaning"/>
         <code value="normal"/>
         <display value="Normal Range"/>
       </coding>
       <text value="Normal Range"/>
      </meaning>
      <low>
        <value value="0.8"/>
        <unit value="mg/dL"/>
        <code value="mg/dL"/>
        <system value="http://unitsofmeasure.org"/>
      </low>
      <high>
        <value value="1.5"/>
        <unit value="mg/dL"/>
        <code value="mg/dL"/>
        <system value="http://unitsofmeasure.org"/>
      </high>
    </referenceRange>
    
  </Observation>
  
  </resource>
  <request>
    <method value="POST"/>
    <url value="Observation/1469-lab"/>
  </request>
</entry>
<entry>
  <resource>
    
    
  <Observation>
  <id value="1470-lab"/>
    <text>
      <status value="generated"/>
      <div xmlns="http://www.w3.org/1999/xhtml">2003-11-30: Sodium SerPl-sCnc = 140 mmol/L</div>
    </text>
    <code>
      <coding>
        <system value="http://loinc.org"/>
        <code value="2951-2"/>
        <display value="Sodium SerPl-sCnc"/>
      </coding>
      <text value="Sodium SerPl-sCnc"/>
    </code>
    <valueQuantity>
      <value value="140.0"/>
      <unit value="mmol/L"/>
      <system value="http://unitsofmeasure.org" />
      <code value=""/>
    </valueQuantity>
    
    <effectiveDateTime value="2003-11-30"/>
    <status value="final"/>
    <subject>
      <reference value="Patient/1768562"/>
    </subject>
    <referenceRange>
      <meaning>
        <coding>
         <system value="http://hl7.org/fhir/referencerange-meaning"/>
         <code value="normal"/>
         <display value="Normal Range"/>
       </coding>
       <text value="Normal Range"/>
      </meaning>
      <low>
        <value value="137.0"/>
        <unit value="mmol/L"/>
        <code value="mmol/L"/>
        <system value="http://unitsofmeasure.org"/>
      </low>
      <high>
        <value value="145.0"/>
        <unit value="mmol/L"/>
        <code value="mmol/L"/>
        <system value="http://unitsofmeasure.org"/>
      </high>
    </referenceRange>
    
  </Observation>
  
  </resource>
  <request>
    <method value="POST"/>
    <url value="Observation/1470-lab"/>
  </request>
</entry>
<entry>
  <resource>
    
    
  <Observation>
  <id value="1471-lab"/>
    <text>
      <status value="generated"/>
      <div xmlns="http://www.w3.org/1999/xhtml">2003-11-30: MCHC RBC Auto-mCnc = 33.3 g/dL</div>
    </text>
    <code>
      <coding>
        <system value="http://loinc.org"/>
        <code value="786-4"/>
        <display value="MCHC RBC Auto-mCnc"/>
      </coding>
      <text value="MCHC RBC Auto-mCnc"/>
    </code>
    <valueQuantity>
      <value value="33.3"/>
      <unit value="g/dL"/>
      <system value="http://unitsofmeasure.org" />
      <code value=""/>
    </valueQuantity>
    
    <effectiveDateTime value="2003-11-30"/>
    <status value="final"/>
    <subject>
      <reference value="Patient/1768562"/>
    </subject>
    <referenceRange>
      <meaning>
        <coding>
         <system value="http://hl7.org/fhir/referencerange-meaning"/>
         <code value="normal"/>
         <display value="Normal Range"/>
       </coding>
       <text value="Normal Range"/>
      </meaning>
      <low>
        <value value="32.0"/>
        <unit value="g/dL"/>
        <code value="g/dL"/>
        <system value="http://unitsofmeasure.org"/>
      </low>
      <high>
        <value value="36.0"/>
        <unit value="g/dL"/>
        <code value="g/dL"/>
        <system value="http://unitsofmeasure.org"/>
      </high>
    </referenceRange>
    
  </Observation>
  
  </resource>
  <request>
    <method value="POST"/>
    <url value="Observation/1471-lab"/>
  </request>
</entry>
<entry>
  <resource>
    
    
  <Observation>
  <id value="1472-lab"/>
    <text>
      <status value="generated"/>
      <div xmlns="http://www.w3.org/1999/xhtml">2003-11-30: MCH RBC Qn Auto = 30.2 pg</div>
    </text>
    <code>
      <coding>
        <system value="http://loinc.org"/>
        <code value="785-6"/>
        <display value="MCH RBC Qn Auto"/>
      </coding>
      <text value="MCH RBC Qn Auto"/>
    </code>
    <valueQuantity>
      <value value="30.2"/>
      <unit value="pg"/>
      <system value="http://unitsofmeasure.org" />
      <code value=""/>
    </valueQuantity>
    
    <effectiveDateTime value="2003-11-30"/>
    <status value="final"/>
    <subject>
      <reference value="Patient/1768562"/>
    </subject>
    <referenceRange>
      <meaning>
        <coding>
         <system value="http://hl7.org/fhir/referencerange-meaning"/>
         <code value="normal"/>
         <display value="Normal Range"/>
       </coding>
       <text value="Normal Range"/>
      </meaning>
      <low>
        <value value="27.0"/>
        <unit value="pg"/>
        <code value="pg"/>
        <system value="http://unitsofmeasure.org"/>
      </low>
      <high>
        <value value="31.0"/>
        <unit value="pg"/>
        <code value="pg"/>
        <system value="http://unitsofmeasure.org"/>
      </high>
    </referenceRange>
    
  </Observation>
  
  </resource>
  <request>
    <method value="POST"/>
    <url value="Observation/1472-lab"/>
  </request>
</entry>
<entry>
  <resource>
    
    
  <Observation>
  <id value="1473-lab"/>
    <text>
      <status value="generated"/>
      <div xmlns="http://www.w3.org/1999/xhtml">2003-11-30: MCV RBC = 90.7 fL</div>
    </text>
    <code>
      <coding>
        <system value="http://loinc.org"/>
        <code value="30428-7"/>
        <display value="MCV RBC"/>
      </coding>
      <text value="MCV RBC"/>
    </code>
    <valueQuantity>
      <value value="90.7"/>
      <unit value="fL"/>
      <system value="http://unitsofmeasure.org" />
      <code value=""/>
    </valueQuantity>
    
    <effectiveDateTime value="2003-11-30"/>
    <status value="final"/>
    <subject>
      <reference value="Patient/1768562"/>
    </subject>
    <referenceRange>
      <meaning>
        <coding>
         <system value="http://hl7.org/fhir/referencerange-meaning"/>
         <code value="normal"/>
         <display value="Normal Range"/>
       </coding>
       <text value="Normal Range"/>
      </meaning>
      <low>
        <value value="78.0"/>
        <unit value="fL"/>
        <code value="fL"/>
        <system value="http://unitsofmeasure.org"/>
      </low>
      <high>
        <value value="100.0"/>
        <unit value="fL"/>
        <code value="fL"/>
        <system value="http://unitsofmeasure.org"/>
      </high>
    </referenceRange>
    
  </Observation>
  
  </resource>
  <request>
    <method value="POST"/>
    <url value="Observation/1473-lab"/>
  </request>
</entry>
<entry>
  <resource>
    
    
  <Observation>
  <id value="1474-lab"/>
    <text>
      <status value="generated"/>
      <div xmlns="http://www.w3.org/1999/xhtml">2003-11-30: TSH SerPl DL&lt;=0.005 mU/L-aCnc = 3 mcU/mL</div>
    </text>
    <code>
      <coding>
        <system value="http://loinc.org"/>
        <code value="11580-8"/>
        <display value="TSH SerPl DL&lt;=0.005 mU/L-aCnc"/>
      </coding>
      <text value="TSH SerPl DL&lt;=0.005 mU/L-aCnc"/>
    </code>
    <valueQuantity>
      <value value="3.0"/>
      <unit value="mcU/mL"/>
      <system value="http://unitsofmeasure.org" />
      <code value=""/>
    </valueQuantity>
    
    <effectiveDateTime value="2003-11-30"/>
    <status value="final"/>
    <subject>
      <reference value="Patient/1768562"/>
    </subject>
    <referenceRange>
      <meaning>
        <coding>
         <system value="http://hl7.org/fhir/referencerange-meaning"/>
         <code value="normal"/>
         <display value="Normal Range"/>
       </coding>
       <text value="Normal Range"/>
      </meaning>
      <low>
        <value value="0.4"/>
        <unit value="mcU/mL"/>
        <code value="mcU/mL"/>
        <system value="http://unitsofmeasure.org"/>
      </low>
      <high>
        <value value="5.5"/>
        <unit value="mcU/mL"/>
        <code value="mcU/mL"/>
        <system value="http://unitsofmeasure.org"/>
      </high>
    </referenceRange>
    
  </Observation>
  
  </resource>
  <request>
    <method value="POST"/>
    <url value="Observation/1474-lab"/>
  </request>
</entry>
<entry>
  <resource>
    
    
  <Observation>
  <id value="1475-lab"/>
    <text>
      <status value="generated"/>
      <div xmlns="http://www.w3.org/1999/xhtml">2003-12-01: Cholest SerPl-mCnc = 141 mg/dL</div>
    </text>
    <code>
      <coding>
        <system value="http://loinc.org"/>
        <code value="2093-3"/>
        <display value="Cholest SerPl-mCnc"/>
      </coding>
      <text value="Cholest SerPl-mCnc"/>
    </code>
    <valueQuantity>
      <value value="141.0"/>
      <unit value="mg/dL"/>
      <system value="http://unitsofmeasure.org" />
      <code value=""/>
    </valueQuantity>
    
    <effectiveDateTime value="2003-12-01"/>
    <status value="final"/>
    <subject>
      <reference value="Patient/1768562"/>
    </subject>
    <referenceRange>
      <meaning>
        <coding>
         <system value="http://hl7.org/fhir/referencerange-meaning"/>
         <code value="normal"/>
         <display value="Normal Range"/>
       </coding>
       <text value="Normal Range"/>
      </meaning>
      <low>
        <value value="100.0"/>
        <unit value="mg/dL"/>
        <code value="mg/dL"/>
        <system value="http://unitsofmeasure.org"/>
      </low>
      <high>
        <value value="200.0"/>
        <unit value="mg/dL"/>
        <code value="mg/dL"/>
        <system value="http://unitsofmeasure.org"/>
      </high>
    </referenceRange>
    
  </Observation>
  
  </resource>
  <request>
    <method value="POST"/>
    <url value="Observation/1475-lab"/>
  </request>
</entry>
<entry>
  <resource>
    
    
  <Observation>
  <id value="1476-lab"/>
    <text>
      <status value="generated"/>
      <div xmlns="http://www.w3.org/1999/xhtml">2003-12-01: Platelet # Bld = 207 10*3/uL</div>
    </text>
    <code>
      <coding>
        <system value="http://loinc.org"/>
        <code value="26515-7"/>
        <display value="Platelet # Bld"/>
      </coding>
      <text value="Platelet # Bld"/>
    </code>
    <valueQuantity>
      <value value="207.0"/>
      <unit value="10*3/uL"/>
      <system value="http://unitsofmeasure.org" />
      <code value=""/>
    </valueQuantity>
    
    <effectiveDateTime value="2003-12-01"/>
    <status value="final"/>
    <subject>
      <reference value="Patient/1768562"/>
    </subject>
    <referenceRange>
      <meaning>
        <coding>
         <system value="http://hl7.org/fhir/referencerange-meaning"/>
         <code value="normal"/>
         <display value="Normal Range"/>
       </coding>
       <text value="Normal Range"/>
      </meaning>
      <low>
        <value value="150.0"/>
        <unit value="10*3/uL"/>
        <code value="10*3/uL"/>
        <system value="http://unitsofmeasure.org"/>
      </low>
      <high>
        <value value="450.0"/>
        <unit value="10*3/uL"/>
        <code value="10*3/uL"/>
        <system value="http://unitsofmeasure.org"/>
      </high>
    </referenceRange>
    
  </Observation>
  
  </resource>
  <request>
    <method value="POST"/>
    <url value="Observation/1476-lab"/>
  </request>
</entry>
<entry>
  <resource>
    
    
  <Observation>
  <id value="1477-lab"/>
    <text>
      <status value="generated"/>
      <div xmlns="http://www.w3.org/1999/xhtml">2003-12-01: Hgb Bld-mCnc = 13 g/dL</div>
    </text>
    <code>
      <coding>
        <system value="http://loinc.org"/>
        <code value="718-7"/>
        <display value="Hgb Bld-mCnc"/>
      </coding>
      <text value="Hgb Bld-mCnc"/>
    </code>
    <valueQuantity>
      <value value="13.0"/>
      <unit value="g/dL"/>
      <system value="http://unitsofmeasure.org" />
      <code value=""/>
    </valueQuantity>
    
    <effectiveDateTime value="2003-12-01"/>
    <status value="final"/>
    <subject>
      <reference value="Patient/1768562"/>
    </subject>
    <referenceRange>
      <meaning>
        <coding>
         <system value="http://hl7.org/fhir/referencerange-meaning"/>
         <code value="normal"/>
         <display value="Normal Range"/>
       </coding>
       <text value="Normal Range"/>
      </meaning>
      <low>
        <value value="13.5"/>
        <unit value="g/dL"/>
        <code value="g/dL"/>
        <system value="http://unitsofmeasure.org"/>
      </low>
      <high>
        <value value="18.0"/>
        <unit value="g/dL"/>
        <code value="g/dL"/>
        <system value="http://unitsofmeasure.org"/>
      </high>
    </referenceRange>
    
  </Observation>
  
  </resource>
  <request>
    <method value="POST"/>
    <url value="Observation/1477-lab"/>
  </request>
</entry>
<entry>
  <resource>
    
    
  <Observation>
  <id value="1478-lab"/>
    <text>
      <status value="generated"/>
      <div xmlns="http://www.w3.org/1999/xhtml">2003-12-01: Calcium SerPl-mCnc = 8.7 mg/dL</div>
    </text>
    <code>
      <coding>
        <system value="http://loinc.org"/>
        <code value="17861-6"/>
        <display value="Calcium SerPl-mCnc"/>
      </coding>
      <text value="Calcium SerPl-mCnc"/>
    </code>
    <valueQuantity>
      <value value="8.7"/>
      <unit value="mg/dL"/>
      <system value="http://unitsofmeasure.org" />
      <code value=""/>
    </valueQuantity>
    
    <effectiveDateTime value="2003-12-01"/>
    <status value="final"/>
    <subject>
      <reference value="Patient/1768562"/>
    </subject>
    <referenceRange>
      <meaning>
        <coding>
         <system value="http://hl7.org/fhir/referencerange-meaning"/>
         <code value="normal"/>
         <display value="Normal Range"/>
       </coding>
       <text value="Normal Range"/>
      </meaning>
      <low>
        <value value="8.4"/>
        <unit value="mg/dL"/>
        <code value="mg/dL"/>
        <system value="http://unitsofmeasure.org"/>
      </low>
      <high>
        <value value="10.2"/>
        <unit value="mg/dL"/>
        <code value="mg/dL"/>
        <system value="http://unitsofmeasure.org"/>
      </high>
    </referenceRange>
    
  </Observation>
  
  </resource>
  <request>
    <method value="POST"/>
    <url value="Observation/1478-lab"/>
  </request>
</entry>
<entry>
  <resource>
    
    
  <Observation>
  <id value="1479-lab"/>
    <text>
      <status value="generated"/>
      <div xmlns="http://www.w3.org/1999/xhtml">2003-12-01: Chloride SerPl-sCnc = 107 mmol/L</div>
    </text>
    <code>
      <coding>
        <system value="http://loinc.org"/>
        <code value="2075-0"/>
        <display value="Chloride SerPl-sCnc"/>
      </coding>
      <text value="Chloride SerPl-sCnc"/>
    </code>
    <valueQuantity>
      <value value="107.0"/>
      <unit value="mmol/L"/>
      <system value="http://unitsofmeasure.org" />
      <code value=""/>
    </valueQuantity>
    
    <effectiveDateTime value="2003-12-01"/>
    <status value="final"/>
    <subject>
      <reference value="Patient/1768562"/>
    </subject>
    <referenceRange>
      <meaning>
        <coding>
         <system value="http://hl7.org/fhir/referencerange-meaning"/>
         <code value="normal"/>
         <display value="Normal Range"/>
       </coding>
       <text value="Normal Range"/>
      </meaning>
      <low>
        <value value="98.0"/>
        <unit value="mmol/L"/>
        <code value="mmol/L"/>
        <system value="http://unitsofmeasure.org"/>
      </low>
      <high>
        <value value="107.0"/>
        <unit value="mmol/L"/>
        <code value="mmol/L"/>
        <system value="http://unitsofmeasure.org"/>
      </high>
    </referenceRange>
    
  </Observation>
  
  </resource>
  <request>
    <method value="POST"/>
    <url value="Observation/1479-lab"/>
  </request>
</entry>
<entry>
  <resource>
    
    
  <Observation>
  <id value="1480-lab"/>
    <text>
      <status value="generated"/>
      <div xmlns="http://www.w3.org/1999/xhtml">2003-12-01: Potassium SerPl-sCnc = 4 mmol/L</div>
    </text>
    <code>
      <coding>
        <system value="http://loinc.org"/>
        <code value="2823-3"/>
        <display value="Potassium SerPl-sCnc"/>
      </coding>
      <text value="Potassium SerPl-sCnc"/>
    </code>
    <valueQuantity>
      <value value="4.0"/>
      <unit value="mmol/L"/>
      <system value="http://unitsofmeasure.org" />
      <code value=""/>
    </valueQuantity>
    
    <effectiveDateTime value="2003-12-01"/>
    <status value="final"/>
    <subject>
      <reference value="Patient/1768562"/>
    </subject>
    <referenceRange>
      <meaning>
        <coding>
         <system value="http://hl7.org/fhir/referencerange-meaning"/>
         <code value="normal"/>
         <display value="Normal Range"/>
       </coding>
       <text value="Normal Range"/>
      </meaning>
      <low>
        <value value="3.6"/>
        <unit value="mmol/L"/>
        <code value="mmol/L"/>
        <system value="http://unitsofmeasure.org"/>
      </low>
      <high>
        <value value="5.5"/>
        <unit value="mmol/L"/>
        <code value="mmol/L"/>
        <system value="http://unitsofmeasure.org"/>
      </high>
    </referenceRange>
    
  </Observation>
  
  </resource>
  <request>
    <method value="POST"/>
    <url value="Observation/1480-lab"/>
  </request>
</entry>
<entry>
  <resource>
    
    
  <Observation>
  <id value="1481-lab"/>
    <text>
      <status value="generated"/>
      <div xmlns="http://www.w3.org/1999/xhtml">2003-12-01: PMV Bld = 7.1 fL</div>
    </text>
    <code>
      <coding>
        <system value="http://loinc.org"/>
        <code value="28542-9"/>
        <display value="PMV Bld"/>
      </coding>
      <text value="PMV Bld"/>
    </code>
    <valueQuantity>
      <value value="7.1"/>
      <unit value="fL"/>
      <system value="http://unitsofmeasure.org" />
      <code value=""/>
    </valueQuantity>
    
    <effectiveDateTime value="2003-12-01"/>
    <status value="final"/>
    <subject>
      <reference value="Patient/1768562"/>
    </subject>
    <referenceRange>
      <meaning>
        <coding>
         <system value="http://hl7.org/fhir/referencerange-meaning"/>
         <code value="normal"/>
         <display value="Normal Range"/>
       </coding>
       <text value="Normal Range"/>
      </meaning>
      <low>
        <value value="6.0"/>
        <unit value="fL"/>
        <code value="fL"/>
        <system value="http://unitsofmeasure.org"/>
      </low>
      <high>
        <value value="9.5"/>
        <unit value="fL"/>
        <code value="fL"/>
        <system value="http://unitsofmeasure.org"/>
      </high>
    </referenceRange>
    
  </Observation>
  
  </resource>
  <request>
    <method value="POST"/>
    <url value="Observation/1481-lab"/>
  </request>
</entry>
<entry>
  <resource>
    
    
  <Observation>
  <id value="1482-lab"/>
    <text>
      <status value="generated"/>
      <div xmlns="http://www.w3.org/1999/xhtml">2003-12-01: Creat SerPl-mCnc = 0.9 mg/dL</div>
    </text>
    <code>
      <coding>
        <system value="http://loinc.org"/>
        <code value="2160-0"/>
        <display value="Creat SerPl-mCnc"/>
      </coding>
      <text value="Creat SerPl-mCnc"/>
    </code>
    <valueQuantity>
      <value value="0.9"/>
      <unit value="mg/dL"/>
      <system value="http://unitsofmeasure.org" />
      <code value=""/>
    </valueQuantity>
    
    <effectiveDateTime value="2003-12-01"/>
    <status value="final"/>
    <subject>
      <reference value="Patient/1768562"/>
    </subject>
    <referenceRange>
      <meaning>
        <coding>
         <system value="http://hl7.org/fhir/referencerange-meaning"/>
         <code value="normal"/>
         <display value="Normal Range"/>
       </coding>
       <text value="Normal Range"/>
      </meaning>
      <low>
        <value value="0.8"/>
        <unit value="mg/dL"/>
        <code value="mg/dL"/>
        <system value="http://unitsofmeasure.org"/>
      </low>
      <high>
        <value value="1.5"/>
        <unit value="mg/dL"/>
        <code value="mg/dL"/>
        <system value="http://unitsofmeasure.org"/>
      </high>
    </referenceRange>
    
  </Observation>
  
  </resource>
  <request>
    <method value="POST"/>
    <url value="Observation/1482-lab"/>
  </request>
</entry>
<entry>
  <resource>
    
    
  <Observation>
  <id value="1483-lab"/>
    <text>
      <status value="generated"/>
      <div xmlns="http://www.w3.org/1999/xhtml">2003-12-01: BUN SerPl-mCnc = 15 mg/dL</div>
    </text>
    <code>
      <coding>
        <system value="http://loinc.org"/>
        <code value="3094-0"/>
        <display value="BUN SerPl-mCnc"/>
      </coding>
      <text value="BUN SerPl-mCnc"/>
    </code>
    <valueQuantity>
      <value value="15.0"/>
      <unit value="mg/dL"/>
      <system value="http://unitsofmeasure.org" />
      <code value=""/>
    </valueQuantity>
    
    <effectiveDateTime value="2003-12-01"/>
    <status value="final"/>
    <subject>
      <reference value="Patient/1768562"/>
    </subject>
    <referenceRange>
      <meaning>
        <coding>
         <system value="http://hl7.org/fhir/referencerange-meaning"/>
         <code value="normal"/>
         <display value="Normal Range"/>
       </coding>
       <text value="Normal Range"/>
      </meaning>
      <low>
        <value value="9.0"/>
        <unit value="mg/dL"/>
        <code value="mg/dL"/>
        <system value="http://unitsofmeasure.org"/>
      </low>
      <high>
        <value value="20.0"/>
        <unit value="mg/dL"/>
        <code value="mg/dL"/>
        <system value="http://unitsofmeasure.org"/>
      </high>
    </referenceRange>
    
  </Observation>
  
  </resource>
  <request>
    <method value="POST"/>
    <url value="Observation/1483-lab"/>
  </request>
</entry>
<entry>
  <resource>
    
    
  <Observation>
  <id value="1484-lab"/>
    <text>
      <status value="generated"/>
      <div xmlns="http://www.w3.org/1999/xhtml">2003-12-01: Sodium SerPl-sCnc = 140 mmol/L</div>
    </text>
    <code>
      <coding>
        <system value="http://loinc.org"/>
        <code value="2951-2"/>
        <display value="Sodium SerPl-sCnc"/>
      </coding>
      <text value="Sodium SerPl-sCnc"/>
    </code>
    <valueQuantity>
      <value value="140.0"/>
      <unit value="mmol/L"/>
      <system value="http://unitsofmeasure.org" />
      <code value=""/>
    </valueQuantity>
    
    <effectiveDateTime value="2003-12-01"/>
    <status value="final"/>
    <subject>
      <reference value="Patient/1768562"/>
    </subject>
    <referenceRange>
      <meaning>
        <coding>
         <system value="http://hl7.org/fhir/referencerange-meaning"/>
         <code value="normal"/>
         <display value="Normal Range"/>
       </coding>
       <text value="Normal Range"/>
      </meaning>
      <low>
        <value value="137.0"/>
        <unit value="mmol/L"/>
        <code value="mmol/L"/>
        <system value="http://unitsofmeasure.org"/>
      </low>
      <high>
        <value value="145.0"/>
        <unit value="mmol/L"/>
        <code value="mmol/L"/>
        <system value="http://unitsofmeasure.org"/>
      </high>
    </referenceRange>
    
  </Observation>
  
  </resource>
  <request>
    <method value="POST"/>
    <url value="Observation/1484-lab"/>
  </request>
</entry>
<entry>
  <resource>
    
    
  <Observation>
  <id value="1485-lab"/>
    <text>
      <status value="generated"/>
      <div xmlns="http://www.w3.org/1999/xhtml">2003-12-01: LDLc SerPl Calc-mCnc = 90 mg/dL</div>
    </text>
    <code>
      <coding>
        <system value="http://loinc.org"/>
        <code value="13457-7"/>
        <display value="LDLc SerPl Calc-mCnc"/>
      </coding>
      <text value="LDLc SerPl Calc-mCnc"/>
    </code>
    <valueQuantity>
      <value value="90.0"/>
      <unit value="mg/dL"/>
      <system value="http://unitsofmeasure.org" />
      <code value=""/>
    </valueQuantity>
    
    <effectiveDateTime value="2003-12-01"/>
    <status value="final"/>
    <subject>
      <reference value="Patient/1768562"/>
    </subject>
    <referenceRange>
      <meaning>
        <coding>
         <system value="http://hl7.org/fhir/referencerange-meaning"/>
         <code value="normal"/>
         <display value="Normal Range"/>
       </coding>
       <text value="Normal Range"/>
      </meaning>
      <low>
        <value value="0.0"/>
        <unit value="mg/dL"/>
        <code value="mg/dL"/>
        <system value="http://unitsofmeasure.org"/>
      </low>
      <high>
        <value value="0.0"/>
        <unit value="mg/dL"/>
        <code value="mg/dL"/>
        <system value="http://unitsofmeasure.org"/>
      </high>
    </referenceRange>
    
  </Observation>
  
  </resource>
  <request>
    <method value="POST"/>
    <url value="Observation/1485-lab"/>
  </request>
</entry>
<entry>
  <resource>
    
    
  <Observation>
  <id value="1486-lab"/>
    <text>
      <status value="generated"/>
      <div xmlns="http://www.w3.org/1999/xhtml">2003-12-01: Glucose SerPl-mCnc = 112 mg/dL</div>
    </text>
    <code>
      <coding>
        <system value="http://loinc.org"/>
        <code value="2345-7"/>
        <display value="Glucose SerPl-mCnc"/>
      </coding>
      <text value="Glucose SerPl-mCnc"/>
    </code>
    <valueQuantity>
      <value value="112.0"/>
      <unit value="mg/dL"/>
      <system value="http://unitsofmeasure.org" />
      <code value=""/>
    </valueQuantity>
    
    <effectiveDateTime value="2003-12-01"/>
    <status value="final"/>
    <subject>
      <reference value="Patient/1768562"/>
    </subject>
    <referenceRange>
      <meaning>
        <coding>
         <system value="http://hl7.org/fhir/referencerange-meaning"/>
         <code value="normal"/>
         <display value="Normal Range"/>
       </coding>
       <text value="Normal Range"/>
      </meaning>
      <low>
        <value value="70.0"/>
        <unit value="mg/dL"/>
        <code value="mg/dL"/>
        <system value="http://unitsofmeasure.org"/>
      </low>
      <high>
        <value value="110.0"/>
        <unit value="mg/dL"/>
        <code value="mg/dL"/>
        <system value="http://unitsofmeasure.org"/>
      </high>
    </referenceRange>
    
  </Observation>
  
  </resource>
  <request>
    <method value="POST"/>
    <url value="Observation/1486-lab"/>
  </request>
</entry>
<entry>
  <resource>
    
    
  <Observation>
  <id value="1487-lab"/>
    <text>
      <status value="generated"/>
      <div xmlns="http://www.w3.org/1999/xhtml">2003-12-01: MCHC RBC Auto-mCnc = 33 g/dL</div>
    </text>
    <code>
      <coding>
        <system value="http://loinc.org"/>
        <code value="786-4"/>
        <display value="MCHC RBC Auto-mCnc"/>
      </coding>
      <text value="MCHC RBC Auto-mCnc"/>
    </code>
    <valueQuantity>
      <value value="33.0"/>
      <unit value="g/dL"/>
      <system value="http://unitsofmeasure.org" />
      <code value=""/>
    </valueQuantity>
    
    <effectiveDateTime value="2003-12-01"/>
    <status value="final"/>
    <subject>
      <reference value="Patient/1768562"/>
    </subject>
    <referenceRange>
      <meaning>
        <coding>
         <system value="http://hl7.org/fhir/referencerange-meaning"/>
         <code value="normal"/>
         <display value="Normal Range"/>
       </coding>
       <text value="Normal Range"/>
      </meaning>
      <low>
        <value value="32.0"/>
        <unit value="g/dL"/>
        <code value="g/dL"/>
        <system value="http://unitsofmeasure.org"/>
      </low>
      <high>
        <value value="36.0"/>
        <unit value="g/dL"/>
        <code value="g/dL"/>
        <system value="http://unitsofmeasure.org"/>
      </high>
    </referenceRange>
    
  </Observation>
  
  </resource>
  <request>
    <method value="POST"/>
    <url value="Observation/1487-lab"/>
  </request>
</entry>
<entry>
  <resource>
    
    
  <Observation>
  <id value="1488-lab"/>
    <text>
      <status value="generated"/>
      <div xmlns="http://www.w3.org/1999/xhtml">2003-12-01: HDLc SerPl-mCnc = 34 mg/dL</div>
    </text>
    <code>
      <coding>
        <system value="http://loinc.org"/>
        <code value="2085-9"/>
        <display value="HDLc SerPl-mCnc"/>
      </coding>
      <text value="HDLc SerPl-mCnc"/>
    </code>
    <valueQuantity>
      <value value="34.0"/>
      <unit value="mg/dL"/>
      <system value="http://unitsofmeasure.org" />
      <code value=""/>
    </valueQuantity>
    
    <effectiveDateTime value="2003-12-01"/>
    <status value="final"/>
    <subject>
      <reference value="Patient/1768562"/>
    </subject>
    <referenceRange>
      <meaning>
        <coding>
         <system value="http://hl7.org/fhir/referencerange-meaning"/>
         <code value="normal"/>
         <display value="Normal Range"/>
       </coding>
       <text value="Normal Range"/>
      </meaning>
      <low>
        <value value="35.0"/>
        <unit value="mg/dL"/>
        <code value="mg/dL"/>
        <system value="http://unitsofmeasure.org"/>
      </low>
      <high>
        <value value="55.0"/>
        <unit value="mg/dL"/>
        <code value="mg/dL"/>
        <system value="http://unitsofmeasure.org"/>
      </high>
    </referenceRange>
    
  </Observation>
  
  </resource>
  <request>
    <method value="POST"/>
    <url value="Observation/1488-lab"/>
  </request>
</entry>
<entry>
  <resource>
    
    
  <Observation>
  <id value="1489-lab"/>
    <text>
      <status value="generated"/>
      <div xmlns="http://www.w3.org/1999/xhtml">2003-12-01: MCH RBC Qn Auto = 31 pg</div>
    </text>
    <code>
      <coding>
        <system value="http://loinc.org"/>
        <code value="785-6"/>
        <display value="MCH RBC Qn Auto"/>
      </coding>
      <text value="MCH RBC Qn Auto"/>
    </code>
    <valueQuantity>
      <value value="31.0"/>
      <unit value="pg"/>
      <system value="http://unitsofmeasure.org" />
      <code value=""/>
    </valueQuantity>
    
    <effectiveDateTime value="2003-12-01"/>
    <status value="final"/>
    <subject>
      <reference value="Patient/1768562"/>
    </subject>
    <referenceRange>
      <meaning>
        <coding>
         <system value="http://hl7.org/fhir/referencerange-meaning"/>
         <code value="normal"/>
         <display value="Normal Range"/>
       </coding>
       <text value="Normal Range"/>
      </meaning>
      <low>
        <value value="27.0"/>
        <unit value="pg"/>
        <code value="pg"/>
        <system value="http://unitsofmeasure.org"/>
      </low>
      <high>
        <value value="31.0"/>
        <unit value="pg"/>
        <code value="pg"/>
        <system value="http://unitsofmeasure.org"/>
      </high>
    </referenceRange>
    
  </Observation>
  
  </resource>
  <request>
    <method value="POST"/>
    <url value="Observation/1489-lab"/>
  </request>
</entry>
<entry>
  <resource>
    
    
  <Observation>
  <id value="1490-lab"/>
    <text>
      <status value="generated"/>
      <div xmlns="http://www.w3.org/1999/xhtml">2003-12-01: RBC # Bld Auto = 4.19 10*6/uL</div>
    </text>
    <code>
      <coding>
        <system value="http://loinc.org"/>
        <code value="789-8"/>
        <display value="RBC # Bld Auto"/>
      </coding>
      <text value="RBC # Bld Auto"/>
    </code>
    <valueQuantity>
      <value value="4.19"/>
      <unit value="10*6/uL"/>
      <system value="http://unitsofmeasure.org" />
      <code value=""/>
    </valueQuantity>
    
    <effectiveDateTime value="2003-12-01"/>
    <status value="final"/>
    <subject>
      <reference value="Patient/1768562"/>
    </subject>
    <referenceRange>
      <meaning>
        <coding>
         <system value="http://hl7.org/fhir/referencerange-meaning"/>
         <code value="normal"/>
         <display value="Normal Range"/>
       </coding>
       <text value="Normal Range"/>
      </meaning>
      <low>
        <value value="4.7"/>
        <unit value="10*6/uL"/>
        <code value="10*6/uL"/>
        <system value="http://unitsofmeasure.org"/>
      </low>
      <high>
        <value value="6.0"/>
        <unit value="10*6/uL"/>
        <code value="10*6/uL"/>
        <system value="http://unitsofmeasure.org"/>
      </high>
    </referenceRange>
    
  </Observation>
  
  </resource>
  <request>
    <method value="POST"/>
    <url value="Observation/1490-lab"/>
  </request>
</entry>
<entry>
  <resource>
    
    
  <Observation>
  <id value="1491-lab"/>
    <text>
      <status value="generated"/>
      <div xmlns="http://www.w3.org/1999/xhtml">2003-12-01: MCV RBC = 93.7 fL</div>
    </text>
    <code>
      <coding>
        <system value="http://loinc.org"/>
        <code value="30428-7"/>
        <display value="MCV RBC"/>
      </coding>
      <text value="MCV RBC"/>
    </code>
    <valueQuantity>
      <value value="93.7"/>
      <unit value="fL"/>
      <system value="http://unitsofmeasure.org" />
      <code value=""/>
    </valueQuantity>
    
    <effectiveDateTime value="2003-12-01"/>
    <status value="final"/>
    <subject>
      <reference value="Patient/1768562"/>
    </subject>
    <referenceRange>
      <meaning>
        <coding>
         <system value="http://hl7.org/fhir/referencerange-meaning"/>
         <code value="normal"/>
         <display value="Normal Range"/>
       </coding>
       <text value="Normal Range"/>
      </meaning>
      <low>
        <value value="78.0"/>
        <unit value="fL"/>
        <code value="fL"/>
        <system value="http://unitsofmeasure.org"/>
      </low>
      <high>
        <value value="100.0"/>
        <unit value="fL"/>
        <code value="fL"/>
        <system value="http://unitsofmeasure.org"/>
      </high>
    </referenceRange>
    
  </Observation>
  
  </resource>
  <request>
    <method value="POST"/>
    <url value="Observation/1491-lab"/>
  </request>
</entry>
<entry>
  <resource>
    
    
  <Observation>
  <id value="1492-lab"/>
    <text>
      <status value="generated"/>
      <div xmlns="http://www.w3.org/1999/xhtml">2003-12-01: RDW RBC-Rto = 13.2 %</div>
    </text>
    <code>
      <coding>
        <system value="http://loinc.org"/>
        <code value="30385-9"/>
        <display value="RDW RBC-Rto"/>
      </coding>
      <text value="RDW RBC-Rto"/>
    </code>
    <valueQuantity>
      <value value="13.2"/>
      <unit value="%"/>
      <system value="http://unitsofmeasure.org" />
      <code value=""/>
    </valueQuantity>
    
    <effectiveDateTime value="2003-12-01"/>
    <status value="final"/>
    <subject>
      <reference value="Patient/1768562"/>
    </subject>
    <referenceRange>
      <meaning>
        <coding>
         <system value="http://hl7.org/fhir/referencerange-meaning"/>
         <code value="normal"/>
         <display value="Normal Range"/>
       </coding>
       <text value="Normal Range"/>
      </meaning>
      <low>
        <value value="11.5"/>
        <unit value="%"/>
        <code value="%"/>
        <system value="http://unitsofmeasure.org"/>
      </low>
      <high>
        <value value="14.0"/>
        <unit value="%"/>
        <code value="%"/>
        <system value="http://unitsofmeasure.org"/>
      </high>
    </referenceRange>
    
  </Observation>
  
  </resource>
  <request>
    <method value="POST"/>
    <url value="Observation/1492-lab"/>
  </request>
</entry>
<entry>
  <resource>
    
    
  <Observation>
  <id value="1493-lab"/>
    <text>
      <status value="generated"/>
      <div xmlns="http://www.w3.org/1999/xhtml">2003-12-01: WBC # Bld = 9.9 10*3/uL</div>
    </text>
    <code>
      <coding>
        <system value="http://loinc.org"/>
        <code value="26464-8"/>
        <display value="WBC # Bld"/>
      </coding>
      <text value="WBC # Bld"/>
    </code>
    <valueQuantity>
      <value value="9.9"/>
      <unit value="10*3/uL"/>
      <system value="http://unitsofmeasure.org" />
      <code value=""/>
    </valueQuantity>
    
    <effectiveDateTime value="2003-12-01"/>
    <status value="final"/>
    <subject>
      <reference value="Patient/1768562"/>
    </subject>
    <referenceRange>
      <meaning>
        <coding>
         <system value="http://hl7.org/fhir/referencerange-meaning"/>
         <code value="normal"/>
         <display value="Normal Range"/>
       </coding>
       <text value="Normal Range"/>
      </meaning>
      <low>
        <value value="4.0"/>
        <unit value="10*3/uL"/>
        <code value="10*3/uL"/>
        <system value="http://unitsofmeasure.org"/>
      </low>
      <high>
        <value value="10.5"/>
        <unit value="10*3/uL"/>
        <code value="10*3/uL"/>
        <system value="http://unitsofmeasure.org"/>
      </high>
    </referenceRange>
    
  </Observation>
  
  </resource>
  <request>
    <method value="POST"/>
    <url value="Observation/1493-lab"/>
  </request>
</entry>
<entry>
  <resource>
    
    
  <Observation>
  <id value="1494-lab"/>
    <text>
      <status value="generated"/>
      <div xmlns="http://www.w3.org/1999/xhtml">2003-12-01: Trigl SerPl-mCnc = 84 mg/dL</div>
    </text>
    <code>
      <coding>
        <system value="http://loinc.org"/>
        <code value="2571-8"/>
        <display value="Trigl SerPl-mCnc"/>
      </coding>
      <text value="Trigl SerPl-mCnc"/>
    </code>
    <valueQuantity>
      <value value="84.0"/>
      <unit value="mg/dL"/>
      <system value="http://unitsofmeasure.org" />
      <code value=""/>
    </valueQuantity>
    
    <effectiveDateTime value="2003-12-01"/>
    <status value="final"/>
    <subject>
      <reference value="Patient/1768562"/>
    </subject>
    <referenceRange>
      <meaning>
        <coding>
         <system value="http://hl7.org/fhir/referencerange-meaning"/>
         <code value="normal"/>
         <display value="Normal Range"/>
       </coding>
       <text value="Normal Range"/>
      </meaning>
      <low>
        <value value="10.0"/>
        <unit value="mg/dL"/>
        <code value="mg/dL"/>
        <system value="http://unitsofmeasure.org"/>
      </low>
      <high>
        <value value="190.0"/>
        <unit value="mg/dL"/>
        <code value="mg/dL"/>
        <system value="http://unitsofmeasure.org"/>
      </high>
    </referenceRange>
    
  </Observation>
  
  </resource>
  <request>
    <method value="POST"/>
    <url value="Observation/1494-lab"/>
  </request>
</entry>
<entry>
  <resource>
    
    
  <Observation>
  <id value="1495-lab"/>
    <text>
      <status value="generated"/>
      <div xmlns="http://www.w3.org/1999/xhtml">2003-12-02: Platelet # Bld = 180 10*3/uL</div>
    </text>
    <code>
      <coding>
        <system value="http://loinc.org"/>
        <code value="26515-7"/>
        <display value="Platelet # Bld"/>
      </coding>
      <text value="Platelet # Bld"/>
    </code>
    <valueQuantity>
      <value value="180.0"/>
      <unit value="10*3/uL"/>
      <system value="http://unitsofmeasure.org" />
      <code value=""/>
    </valueQuantity>
    
    <effectiveDateTime value="2003-12-02"/>
    <status value="final"/>
    <subject>
      <reference value="Patient/1768562"/>
    </subject>
    <referenceRange>
      <meaning>
        <coding>
         <system value="http://hl7.org/fhir/referencerange-meaning"/>
         <code value="normal"/>
         <display value="Normal Range"/>
       </coding>
       <text value="Normal Range"/>
      </meaning>
      <low>
        <value value="150.0"/>
        <unit value="10*3/uL"/>
        <code value="10*3/uL"/>
        <system value="http://unitsofmeasure.org"/>
      </low>
      <high>
        <value value="450.0"/>
        <unit value="10*3/uL"/>
        <code value="10*3/uL"/>
        <system value="http://unitsofmeasure.org"/>
      </high>
    </referenceRange>
    
  </Observation>
  
  </resource>
  <request>
    <method value="POST"/>
    <url value="Observation/1495-lab"/>
  </request>
</entry>
<entry>
  <resource>
    
    
  <Observation>
  <id value="1496-lab"/>
    <text>
      <status value="generated"/>
      <div xmlns="http://www.w3.org/1999/xhtml">2003-12-02: MCV RBC = 91.9 fL</div>
    </text>
    <code>
      <coding>
        <system value="http://loinc.org"/>
        <code value="30428-7"/>
        <display value="MCV RBC"/>
      </coding>
      <text value="MCV RBC"/>
    </code>
    <valueQuantity>
      <value value="91.9"/>
      <unit value="fL"/>
      <system value="http://unitsofmeasure.org" />
      <code value=""/>
    </valueQuantity>
    
    <effectiveDateTime value="2003-12-02"/>
    <status value="final"/>
    <subject>
      <reference value="Patient/1768562"/>
    </subject>
    <referenceRange>
      <meaning>
        <coding>
         <system value="http://hl7.org/fhir/referencerange-meaning"/>
         <code value="normal"/>
         <display value="Normal Range"/>
       </coding>
       <text value="Normal Range"/>
      </meaning>
      <low>
        <value value="78.0"/>
        <unit value="fL"/>
        <code value="fL"/>
        <system value="http://unitsofmeasure.org"/>
      </low>
      <high>
        <value value="100.0"/>
        <unit value="fL"/>
        <code value="fL"/>
        <system value="http://unitsofmeasure.org"/>
      </high>
    </referenceRange>
    
  </Observation>
  
  </resource>
  <request>
    <method value="POST"/>
    <url value="Observation/1496-lab"/>
  </request>
</entry>
<entry>
  <resource>
    
    
  <Observation>
  <id value="1497-lab"/>
    <text>
      <status value="generated"/>
      <div xmlns="http://www.w3.org/1999/xhtml">2003-12-02: MCH RBC Qn Auto = 32.2 pg</div>
    </text>
    <code>
      <coding>
        <system value="http://loinc.org"/>
        <code value="785-6"/>
        <display value="MCH RBC Qn Auto"/>
      </coding>
      <text value="MCH RBC Qn Auto"/>
    </code>
    <valueQuantity>
      <value value="32.2"/>
      <unit value="pg"/>
      <system value="http://unitsofmeasure.org" />
      <code value=""/>
    </valueQuantity>
    
    <effectiveDateTime value="2003-12-02"/>
    <status value="final"/>
    <subject>
      <reference value="Patient/1768562"/>
    </subject>
    <referenceRange>
      <meaning>
        <coding>
         <system value="http://hl7.org/fhir/referencerange-meaning"/>
         <code value="normal"/>
         <display value="Normal Range"/>
       </coding>
       <text value="Normal Range"/>
      </meaning>
      <low>
        <value value="27.0"/>
        <unit value="pg"/>
        <code value="pg"/>
        <system value="http://unitsofmeasure.org"/>
      </low>
      <high>
        <value value="31.0"/>
        <unit value="pg"/>
        <code value="pg"/>
        <system value="http://unitsofmeasure.org"/>
      </high>
    </referenceRange>
    
  </Observation>
  
  </resource>
  <request>
    <method value="POST"/>
    <url value="Observation/1497-lab"/>
  </request>
</entry>
<entry>
  <resource>
    
    
  <Observation>
  <id value="1498-lab"/>
    <text>
      <status value="generated"/>
      <div xmlns="http://www.w3.org/1999/xhtml">2003-12-02: MCHC RBC Auto-mCnc = 35.1 g/dL</div>
    </text>
    <code>
      <coding>
        <system value="http://loinc.org"/>
        <code value="786-4"/>
        <display value="MCHC RBC Auto-mCnc"/>
      </coding>
      <text value="MCHC RBC Auto-mCnc"/>
    </code>
    <valueQuantity>
      <value value="35.1"/>
      <unit value="g/dL"/>
      <system value="http://unitsofmeasure.org" />
      <code value=""/>
    </valueQuantity>
    
    <effectiveDateTime value="2003-12-02"/>
    <status value="final"/>
    <subject>
      <reference value="Patient/1768562"/>
    </subject>
    <referenceRange>
      <meaning>
        <coding>
         <system value="http://hl7.org/fhir/referencerange-meaning"/>
         <code value="normal"/>
         <display value="Normal Range"/>
       </coding>
       <text value="Normal Range"/>
      </meaning>
      <low>
        <value value="32.0"/>
        <unit value="g/dL"/>
        <code value="g/dL"/>
        <system value="http://unitsofmeasure.org"/>
      </low>
      <high>
        <value value="36.0"/>
        <unit value="g/dL"/>
        <code value="g/dL"/>
        <system value="http://unitsofmeasure.org"/>
      </high>
    </referenceRange>
    
  </Observation>
  
  </resource>
  <request>
    <method value="POST"/>
    <url value="Observation/1498-lab"/>
  </request>
</entry>
<entry>
  <resource>
    
    
  <Observation>
  <id value="1499-lab"/>
    <text>
      <status value="generated"/>
      <div xmlns="http://www.w3.org/1999/xhtml">2003-12-02: Sodium SerPl-sCnc = 138 mmol/L</div>
    </text>
    <code>
      <coding>
        <system value="http://loinc.org"/>
        <code value="2951-2"/>
        <display value="Sodium SerPl-sCnc"/>
      </coding>
      <text value="Sodium SerPl-sCnc"/>
    </code>
    <valueQuantity>
      <value value="138.0"/>
      <unit value="mmol/L"/>
      <system value="http://unitsofmeasure.org" />
      <code value=""/>
    </valueQuantity>
    
    <effectiveDateTime value="2003-12-02"/>
    <status value="final"/>
    <subject>
      <reference value="Patient/1768562"/>
    </subject>
    <referenceRange>
      <meaning>
        <coding>
         <system value="http://hl7.org/fhir/referencerange-meaning"/>
         <code value="normal"/>
         <display value="Normal Range"/>
       </coding>
       <text value="Normal Range"/>
      </meaning>
      <low>
        <value value="137.0"/>
        <unit value="mmol/L"/>
        <code value="mmol/L"/>
        <system value="http://unitsofmeasure.org"/>
      </low>
      <high>
        <value value="145.0"/>
        <unit value="mmol/L"/>
        <code value="mmol/L"/>
        <system value="http://unitsofmeasure.org"/>
      </high>
    </referenceRange>
    
  </Observation>
  
  </resource>
  <request>
    <method value="POST"/>
    <url value="Observation/1499-lab"/>
  </request>
</entry>
<entry>
  <resource>
    
    
  <Observation>
  <id value="1500-lab"/>
    <text>
      <status value="generated"/>
      <div xmlns="http://www.w3.org/1999/xhtml">2003-12-02: Creat SerPl-mCnc = 1 mg/dL</div>
    </text>
    <code>
      <coding>
        <system value="http://loinc.org"/>
        <code value="2160-0"/>
        <display value="Creat SerPl-mCnc"/>
      </coding>
      <text value="Creat SerPl-mCnc"/>
    </code>
    <valueQuantity>
      <value value="1.0"/>
      <unit value="mg/dL"/>
      <system value="http://unitsofmeasure.org" />
      <code value=""/>
    </valueQuantity>
    
    <effectiveDateTime value="2003-12-02"/>
    <status value="final"/>
    <subject>
      <reference value="Patient/1768562"/>
    </subject>
    <referenceRange>
      <meaning>
        <coding>
         <system value="http://hl7.org/fhir/referencerange-meaning"/>
         <code value="normal"/>
         <display value="Normal Range"/>
       </coding>
       <text value="Normal Range"/>
      </meaning>
      <low>
        <value value="0.8"/>
        <unit value="mg/dL"/>
        <code value="mg/dL"/>
        <system value="http://unitsofmeasure.org"/>
      </low>
      <high>
        <value value="1.5"/>
        <unit value="mg/dL"/>
        <code value="mg/dL"/>
        <system value="http://unitsofmeasure.org"/>
      </high>
    </referenceRange>
    
  </Observation>
  
  </resource>
  <request>
    <method value="POST"/>
    <url value="Observation/1500-lab"/>
  </request>
</entry>
<entry>
  <resource>
    
    
  <Observation>
  <id value="1501-lab"/>
    <text>
      <status value="generated"/>
      <div xmlns="http://www.w3.org/1999/xhtml">2003-12-02: Potassium SerPl-sCnc = 4 mmol/L</div>
    </text>
    <code>
      <coding>
        <system value="http://loinc.org"/>
        <code value="2823-3"/>
        <display value="Potassium SerPl-sCnc"/>
      </coding>
      <text value="Potassium SerPl-sCnc"/>
    </code>
    <valueQuantity>
      <value value="4.0"/>
      <unit value="mmol/L"/>
      <system value="http://unitsofmeasure.org" />
      <code value=""/>
    </valueQuantity>
    
    <effectiveDateTime value="2003-12-02"/>
    <status value="final"/>
    <subject>
      <reference value="Patient/1768562"/>
    </subject>
    <referenceRange>
      <meaning>
        <coding>
         <system value="http://hl7.org/fhir/referencerange-meaning"/>
         <code value="normal"/>
         <display value="Normal Range"/>
       </coding>
       <text value="Normal Range"/>
      </meaning>
      <low>
        <value value="3.6"/>
        <unit value="mmol/L"/>
        <code value="mmol/L"/>
        <system value="http://unitsofmeasure.org"/>
      </low>
      <high>
        <value value="5.5"/>
        <unit value="mmol/L"/>
        <code value="mmol/L"/>
        <system value="http://unitsofmeasure.org"/>
      </high>
    </referenceRange>
    
  </Observation>
  
  </resource>
  <request>
    <method value="POST"/>
    <url value="Observation/1501-lab"/>
  </request>
</entry>
<entry>
  <resource>
    
    
  <Observation>
  <id value="1502-lab"/>
    <text>
      <status value="generated"/>
      <div xmlns="http://www.w3.org/1999/xhtml">2003-12-02: Chloride SerPl-sCnc = 107 mmol/L</div>
    </text>
    <code>
      <coding>
        <system value="http://loinc.org"/>
        <code value="2075-0"/>
        <display value="Chloride SerPl-sCnc"/>
      </coding>
      <text value="Chloride SerPl-sCnc"/>
    </code>
    <valueQuantity>
      <value value="107.0"/>
      <unit value="mmol/L"/>
      <system value="http://unitsofmeasure.org" />
      <code value=""/>
    </valueQuantity>
    
    <effectiveDateTime value="2003-12-02"/>
    <status value="final"/>
    <subject>
      <reference value="Patient/1768562"/>
    </subject>
    <referenceRange>
      <meaning>
        <coding>
         <system value="http://hl7.org/fhir/referencerange-meaning"/>
         <code value="normal"/>
         <display value="Normal Range"/>
       </coding>
       <text value="Normal Range"/>
      </meaning>
      <low>
        <value value="98.0"/>
        <unit value="mmol/L"/>
        <code value="mmol/L"/>
        <system value="http://unitsofmeasure.org"/>
      </low>
      <high>
        <value value="107.0"/>
        <unit value="mmol/L"/>
        <code value="mmol/L"/>
        <system value="http://unitsofmeasure.org"/>
      </high>
    </referenceRange>
    
  </Observation>
  
  </resource>
  <request>
    <method value="POST"/>
    <url value="Observation/1502-lab"/>
  </request>
</entry>
<entry>
  <resource>
    
    
  <Observation>
  <id value="1503-lab"/>
    <text>
      <status value="generated"/>
      <div xmlns="http://www.w3.org/1999/xhtml">2003-12-02: Hgb Bld-mCnc = 12.3 g/dL</div>
    </text>
    <code>
      <coding>
        <system value="http://loinc.org"/>
        <code value="718-7"/>
        <display value="Hgb Bld-mCnc"/>
      </coding>
      <text value="Hgb Bld-mCnc"/>
    </code>
    <valueQuantity>
      <value value="12.3"/>
      <unit value="g/dL"/>
      <system value="http://unitsofmeasure.org" />
      <code value=""/>
    </valueQuantity>
    
    <effectiveDateTime value="2003-12-02"/>
    <status value="final"/>
    <subject>
      <reference value="Patient/1768562"/>
    </subject>
    <referenceRange>
      <meaning>
        <coding>
         <system value="http://hl7.org/fhir/referencerange-meaning"/>
         <code value="normal"/>
         <display value="Normal Range"/>
       </coding>
       <text value="Normal Range"/>
      </meaning>
      <low>
        <value value="13.5"/>
        <unit value="g/dL"/>
        <code value="g/dL"/>
        <system value="http://unitsofmeasure.org"/>
      </low>
      <high>
        <value value="18.0"/>
        <unit value="g/dL"/>
        <code value="g/dL"/>
        <system value="http://unitsofmeasure.org"/>
      </high>
    </referenceRange>
    
  </Observation>
  
  </resource>
  <request>
    <method value="POST"/>
    <url value="Observation/1503-lab"/>
  </request>
</entry>
<entry>
  <resource>
    
    
  <Observation>
  <id value="1504-lab"/>
    <text>
      <status value="generated"/>
      <div xmlns="http://www.w3.org/1999/xhtml">2003-12-02: WBC # Bld = 8.4 10*3/uL</div>
    </text>
    <code>
      <coding>
        <system value="http://loinc.org"/>
        <code value="26464-8"/>
        <display value="WBC # Bld"/>
      </coding>
      <text value="WBC # Bld"/>
    </code>
    <valueQuantity>
      <value value="8.4"/>
      <unit value="10*3/uL"/>
      <system value="http://unitsofmeasure.org" />
      <code value=""/>
    </valueQuantity>
    
    <effectiveDateTime value="2003-12-02"/>
    <status value="final"/>
    <subject>
      <reference value="Patient/1768562"/>
    </subject>
    <referenceRange>
      <meaning>
        <coding>
         <system value="http://hl7.org/fhir/referencerange-meaning"/>
         <code value="normal"/>
         <display value="Normal Range"/>
       </coding>
       <text value="Normal Range"/>
      </meaning>
      <low>
        <value value="4.0"/>
        <unit value="10*3/uL"/>
        <code value="10*3/uL"/>
        <system value="http://unitsofmeasure.org"/>
      </low>
      <high>
        <value value="10.5"/>
        <unit value="10*3/uL"/>
        <code value="10*3/uL"/>
        <system value="http://unitsofmeasure.org"/>
      </high>
    </referenceRange>
    
  </Observation>
  
  </resource>
  <request>
    <method value="POST"/>
    <url value="Observation/1504-lab"/>
  </request>
</entry>
<entry>
  <resource>
    
    
  <Observation>
  <id value="1505-lab"/>
    <text>
      <status value="generated"/>
      <div xmlns="http://www.w3.org/1999/xhtml">2003-12-02: RBC # Bld Auto = 3.82 10*6/uL</div>
    </text>
    <code>
      <coding>
        <system value="http://loinc.org"/>
        <code value="789-8"/>
        <display value="RBC # Bld Auto"/>
      </coding>
      <text value="RBC # Bld Auto"/>
    </code>
    <valueQuantity>
      <value value="3.82"/>
      <unit value="10*6/uL"/>
      <system value="http://unitsofmeasure.org" />
      <code value=""/>
    </valueQuantity>
    
    <effectiveDateTime value="2003-12-02"/>
    <status value="final"/>
    <subject>
      <reference value="Patient/1768562"/>
    </subject>
    <referenceRange>
      <meaning>
        <coding>
         <system value="http://hl7.org/fhir/referencerange-meaning"/>
         <code value="normal"/>
         <display value="Normal Range"/>
       </coding>
       <text value="Normal Range"/>
      </meaning>
      <low>
        <value value="4.7"/>
        <unit value="10*6/uL"/>
        <code value="10*6/uL"/>
        <system value="http://unitsofmeasure.org"/>
      </low>
      <high>
        <value value="6.0"/>
        <unit value="10*6/uL"/>
        <code value="10*6/uL"/>
        <system value="http://unitsofmeasure.org"/>
      </high>
    </referenceRange>
    
  </Observation>
  
  </resource>
  <request>
    <method value="POST"/>
    <url value="Observation/1505-lab"/>
  </request>
</entry>
<entry>
  <resource>
    
    
  <Observation>
  <id value="1506-lab"/>
    <text>
      <status value="generated"/>
      <div xmlns="http://www.w3.org/1999/xhtml">2003-12-02: Glucose SerPl-mCnc = 86 mg/dL</div>
    </text>
    <code>
      <coding>
        <system value="http://loinc.org"/>
        <code value="2345-7"/>
        <display value="Glucose SerPl-mCnc"/>
      </coding>
      <text value="Glucose SerPl-mCnc"/>
    </code>
    <valueQuantity>
      <value value="86.0"/>
      <unit value="mg/dL"/>
      <system value="http://unitsofmeasure.org" />
      <code value=""/>
    </valueQuantity>
    
    <effectiveDateTime value="2003-12-02"/>
    <status value="final"/>
    <subject>
      <reference value="Patient/1768562"/>
    </subject>
    <referenceRange>
      <meaning>
        <coding>
         <system value="http://hl7.org/fhir/referencerange-meaning"/>
         <code value="normal"/>
         <display value="Normal Range"/>
       </coding>
       <text value="Normal Range"/>
      </meaning>
      <low>
        <value value="70.0"/>
        <unit value="mg/dL"/>
        <code value="mg/dL"/>
        <system value="http://unitsofmeasure.org"/>
      </low>
      <high>
        <value value="110.0"/>
        <unit value="mg/dL"/>
        <code value="mg/dL"/>
        <system value="http://unitsofmeasure.org"/>
      </high>
    </referenceRange>
    
  </Observation>
  
  </resource>
  <request>
    <method value="POST"/>
    <url value="Observation/1506-lab"/>
  </request>
</entry>
<entry>
  <resource>
    
    
  <Observation>
  <id value="1507-lab"/>
    <text>
      <status value="generated"/>
      <div xmlns="http://www.w3.org/1999/xhtml">2003-12-02: BUN SerPl-mCnc = 16 mg/dL</div>
    </text>
    <code>
      <coding>
        <system value="http://loinc.org"/>
        <code value="3094-0"/>
        <display value="BUN SerPl-mCnc"/>
      </coding>
      <text value="BUN SerPl-mCnc"/>
    </code>
    <valueQuantity>
      <value value="16.0"/>
      <unit value="mg/dL"/>
      <system value="http://unitsofmeasure.org" />
      <code value=""/>
    </valueQuantity>
    
    <effectiveDateTime value="2003-12-02"/>
    <status value="final"/>
    <subject>
      <reference value="Patient/1768562"/>
    </subject>
    <referenceRange>
      <meaning>
        <coding>
         <system value="http://hl7.org/fhir/referencerange-meaning"/>
         <code value="normal"/>
         <display value="Normal Range"/>
       </coding>
       <text value="Normal Range"/>
      </meaning>
      <low>
        <value value="9.0"/>
        <unit value="mg/dL"/>
        <code value="mg/dL"/>
        <system value="http://unitsofmeasure.org"/>
      </low>
      <high>
        <value value="20.0"/>
        <unit value="mg/dL"/>
        <code value="mg/dL"/>
        <system value="http://unitsofmeasure.org"/>
      </high>
    </referenceRange>
    
  </Observation>
  
  </resource>
  <request>
    <method value="POST"/>
    <url value="Observation/1507-lab"/>
  </request>
</entry>
<entry>
  <resource>
    
    
  <Observation>
  <id value="1508-lab"/>
    <text>
      <status value="generated"/>
      <div xmlns="http://www.w3.org/1999/xhtml">2003-12-02: PMV Bld = 7.1 fL</div>
    </text>
    <code>
      <coding>
        <system value="http://loinc.org"/>
        <code value="28542-9"/>
        <display value="PMV Bld"/>
      </coding>
      <text value="PMV Bld"/>
    </code>
    <valueQuantity>
      <value value="7.1"/>
      <unit value="fL"/>
      <system value="http://unitsofmeasure.org" />
      <code value=""/>
    </valueQuantity>
    
    <effectiveDateTime value="2003-12-02"/>
    <status value="final"/>
    <subject>
      <reference value="Patient/1768562"/>
    </subject>
    <referenceRange>
      <meaning>
        <coding>
         <system value="http://hl7.org/fhir/referencerange-meaning"/>
         <code value="normal"/>
         <display value="Normal Range"/>
       </coding>
       <text value="Normal Range"/>
      </meaning>
      <low>
        <value value="6.0"/>
        <unit value="fL"/>
        <code value="fL"/>
        <system value="http://unitsofmeasure.org"/>
      </low>
      <high>
        <value value="9.5"/>
        <unit value="fL"/>
        <code value="fL"/>
        <system value="http://unitsofmeasure.org"/>
      </high>
    </referenceRange>
    
  </Observation>
  
  </resource>
  <request>
    <method value="POST"/>
    <url value="Observation/1508-lab"/>
  </request>
</entry>
<entry>
  <resource>
    
    
  <Observation>
  <id value="1509-lab"/>
    <text>
      <status value="generated"/>
      <div xmlns="http://www.w3.org/1999/xhtml">2003-12-02: RDW RBC-Rto = 13.4 %</div>
    </text>
    <code>
      <coding>
        <system value="http://loinc.org"/>
        <code value="30385-9"/>
        <display value="RDW RBC-Rto"/>
      </coding>
      <text value="RDW RBC-Rto"/>
    </code>
    <valueQuantity>
      <value value="13.4"/>
      <unit value="%"/>
      <system value="http://unitsofmeasure.org" />
      <code value=""/>
    </valueQuantity>
    
    <effectiveDateTime value="2003-12-02"/>
    <status value="final"/>
    <subject>
      <reference value="Patient/1768562"/>
    </subject>
    <referenceRange>
      <meaning>
        <coding>
         <system value="http://hl7.org/fhir/referencerange-meaning"/>
         <code value="normal"/>
         <display value="Normal Range"/>
       </coding>
       <text value="Normal Range"/>
      </meaning>
      <low>
        <value value="11.5"/>
        <unit value="%"/>
        <code value="%"/>
        <system value="http://unitsofmeasure.org"/>
      </low>
      <high>
        <value value="14.0"/>
        <unit value="%"/>
        <code value="%"/>
        <system value="http://unitsofmeasure.org"/>
      </high>
    </referenceRange>
    
  </Observation>
  
  </resource>
  <request>
    <method value="POST"/>
    <url value="Observation/1509-lab"/>
  </request>
</entry>
<entry>
  <resource>
    
    
  <Observation>
  <id value="1510-lab"/>
    <text>
      <status value="generated"/>
      <div xmlns="http://www.w3.org/1999/xhtml">2003-12-02: Calcium SerPl-mCnc = 8.4 mg/dL</div>
    </text>
    <code>
      <coding>
        <system value="http://loinc.org"/>
        <code value="17861-6"/>
        <display value="Calcium SerPl-mCnc"/>
      </coding>
      <text value="Calcium SerPl-mCnc"/>
    </code>
    <valueQuantity>
      <value value="8.4"/>
      <unit value="mg/dL"/>
      <system value="http://unitsofmeasure.org" />
      <code value=""/>
    </valueQuantity>
    
    <effectiveDateTime value="2003-12-02"/>
    <status value="final"/>
    <subject>
      <reference value="Patient/1768562"/>
    </subject>
    <referenceRange>
      <meaning>
        <coding>
         <system value="http://hl7.org/fhir/referencerange-meaning"/>
         <code value="normal"/>
         <display value="Normal Range"/>
       </coding>
       <text value="Normal Range"/>
      </meaning>
      <low>
        <value value="8.4"/>
        <unit value="mg/dL"/>
        <code value="mg/dL"/>
        <system value="http://unitsofmeasure.org"/>
      </low>
      <high>
        <value value="10.2"/>
        <unit value="mg/dL"/>
        <code value="mg/dL"/>
        <system value="http://unitsofmeasure.org"/>
      </high>
    </referenceRange>
    
  </Observation>
  
  </resource>
  <request>
    <method value="POST"/>
    <url value="Observation/1510-lab"/>
  </request>
</entry>
<entry>
  <resource>
    
    
  <Observation>
  <id value="1511-lab"/>
    <text>
      <status value="generated"/>
      <div xmlns="http://www.w3.org/1999/xhtml">2004-01-03: Platelet # Bld = 215 10*3/uL</div>
    </text>
    <code>
      <coding>
        <system value="http://loinc.org"/>
        <code value="26515-7"/>
        <display value="Platelet # Bld"/>
      </coding>
      <text value="Platelet # Bld"/>
    </code>
    <valueQuantity>
      <value value="215.0"/>
      <unit value="10*3/uL"/>
      <system value="http://unitsofmeasure.org" />
      <code value=""/>
    </valueQuantity>
    
    <effectiveDateTime value="2004-01-03"/>
    <status value="final"/>
    <subject>
      <reference value="Patient/1768562"/>
    </subject>
    <referenceRange>
      <meaning>
        <coding>
         <system value="http://hl7.org/fhir/referencerange-meaning"/>
         <code value="normal"/>
         <display value="Normal Range"/>
       </coding>
       <text value="Normal Range"/>
      </meaning>
      <low>
        <value value="150.0"/>
        <unit value="10*3/uL"/>
        <code value="10*3/uL"/>
        <system value="http://unitsofmeasure.org"/>
      </low>
      <high>
        <value value="450.0"/>
        <unit value="10*3/uL"/>
        <code value="10*3/uL"/>
        <system value="http://unitsofmeasure.org"/>
      </high>
    </referenceRange>
    
  </Observation>
  
  </resource>
  <request>
    <method value="POST"/>
    <url value="Observation/1511-lab"/>
  </request>
</entry>
<entry>
  <resource>
    
    
  <Observation>
  <id value="1512-lab"/>
    <text>
      <status value="generated"/>
      <div xmlns="http://www.w3.org/1999/xhtml">2004-01-03: AST SerPl-cCnc = 25 U/L</div>
    </text>
    <code>
      <coding>
        <system value="http://loinc.org"/>
        <code value="1920-8"/>
        <display value="AST SerPl-cCnc"/>
      </coding>
      <text value="AST SerPl-cCnc"/>
    </code>
    <valueQuantity>
      <value value="25.0"/>
      <unit value="U/L"/>
      <system value="http://unitsofmeasure.org" />
      <code value=""/>
    </valueQuantity>
    
    <effectiveDateTime value="2004-01-03"/>
    <status value="final"/>
    <subject>
      <reference value="Patient/1768562"/>
    </subject>
    <referenceRange>
      <meaning>
        <coding>
         <system value="http://hl7.org/fhir/referencerange-meaning"/>
         <code value="normal"/>
         <display value="Normal Range"/>
       </coding>
       <text value="Normal Range"/>
      </meaning>
      <low>
        <value value="17.0"/>
        <unit value="U/L"/>
        <code value="U/L"/>
        <system value="http://unitsofmeasure.org"/>
      </low>
      <high>
        <value value="59.0"/>
        <unit value="U/L"/>
        <code value="U/L"/>
        <system value="http://unitsofmeasure.org"/>
      </high>
    </referenceRange>
    
  </Observation>
  
  </resource>
  <request>
    <method value="POST"/>
    <url value="Observation/1512-lab"/>
  </request>
</entry>
<entry>
  <resource>
    
    
  <Observation>
  <id value="1513-lab"/>
    <text>
      <status value="generated"/>
      <div xmlns="http://www.w3.org/1999/xhtml">2004-01-03: Bilirub SerPl-mCnc = 0.9 mg/dL</div>
    </text>
    <code>
      <coding>
        <system value="http://loinc.org"/>
        <code value="1975-2"/>
        <display value="Bilirub SerPl-mCnc"/>
      </coding>
      <text value="Bilirub SerPl-mCnc"/>
    </code>
    <valueQuantity>
      <value value="0.9"/>
      <unit value="mg/dL"/>
      <system value="http://unitsofmeasure.org" />
      <code value=""/>
    </valueQuantity>
    
    <effectiveDateTime value="2004-01-03"/>
    <status value="final"/>
    <subject>
      <reference value="Patient/1768562"/>
    </subject>
    <referenceRange>
      <meaning>
        <coding>
         <system value="http://hl7.org/fhir/referencerange-meaning"/>
         <code value="normal"/>
         <display value="Normal Range"/>
       </coding>
       <text value="Normal Range"/>
      </meaning>
      <low>
        <value value="0.2"/>
        <unit value="mg/dL"/>
        <code value="mg/dL"/>
        <system value="http://unitsofmeasure.org"/>
      </low>
      <high>
        <value value="1.3"/>
        <unit value="mg/dL"/>
        <code value="mg/dL"/>
        <system value="http://unitsofmeasure.org"/>
      </high>
    </referenceRange>
    
  </Observation>
  
  </resource>
  <request>
    <method value="POST"/>
    <url value="Observation/1513-lab"/>
  </request>
</entry>
<entry>
  <resource>
    
    
  <Observation>
  <id value="1514-lab"/>
    <text>
      <status value="generated"/>
      <div xmlns="http://www.w3.org/1999/xhtml">2004-01-03: Albumin SerPl-mCnc = 3.6 g/dL</div>
    </text>
    <code>
      <coding>
        <system value="http://loinc.org"/>
        <code value="1751-7"/>
        <display value="Albumin SerPl-mCnc"/>
      </coding>
      <text value="Albumin SerPl-mCnc"/>
    </code>
    <valueQuantity>
      <value value="3.6"/>
      <unit value="g/dL"/>
      <system value="http://unitsofmeasure.org" />
      <code value=""/>
    </valueQuantity>
    
    <effectiveDateTime value="2004-01-03"/>
    <status value="final"/>
    <subject>
      <reference value="Patient/1768562"/>
    </subject>
    <referenceRange>
      <meaning>
        <coding>
         <system value="http://hl7.org/fhir/referencerange-meaning"/>
         <code value="normal"/>
         <display value="Normal Range"/>
       </coding>
       <text value="Normal Range"/>
      </meaning>
      <low>
        <value value="3.5"/>
        <unit value="g/dL"/>
        <code value="g/dL"/>
        <system value="http://unitsofmeasure.org"/>
      </low>
      <high>
        <value value="5.0"/>
        <unit value="g/dL"/>
        <code value="g/dL"/>
        <system value="http://unitsofmeasure.org"/>
      </high>
    </referenceRange>
    
  </Observation>
  
  </resource>
  <request>
    <method value="POST"/>
    <url value="Observation/1514-lab"/>
  </request>
</entry>
<entry>
  <resource>
    
    
  <Observation>
  <id value="1515-lab"/>
    <text>
      <status value="generated"/>
      <div xmlns="http://www.w3.org/1999/xhtml">2004-01-03: Prot SerPl-mCnc = 7.7 g/dL</div>
    </text>
    <code>
      <coding>
        <system value="http://loinc.org"/>
        <code value="2885-2"/>
        <display value="Prot SerPl-mCnc"/>
      </coding>
      <text value="Prot SerPl-mCnc"/>
    </code>
    <valueQuantity>
      <value value="7.7"/>
      <unit value="g/dL"/>
      <system value="http://unitsofmeasure.org" />
      <code value=""/>
    </valueQuantity>
    
    <effectiveDateTime value="2004-01-03"/>
    <status value="final"/>
    <subject>
      <reference value="Patient/1768562"/>
    </subject>
    <referenceRange>
      <meaning>
        <coding>
         <system value="http://hl7.org/fhir/referencerange-meaning"/>
         <code value="normal"/>
         <display value="Normal Range"/>
       </coding>
       <text value="Normal Range"/>
      </meaning>
      <low>
        <value value="6.3"/>
        <unit value="g/dL"/>
        <code value="g/dL"/>
        <system value="http://unitsofmeasure.org"/>
      </low>
      <high>
        <value value="8.2"/>
        <unit value="g/dL"/>
        <code value="g/dL"/>
        <system value="http://unitsofmeasure.org"/>
      </high>
    </referenceRange>
    
  </Observation>
  
  </resource>
  <request>
    <method value="POST"/>
    <url value="Observation/1515-lab"/>
  </request>
</entry>
<entry>
  <resource>
    
    
  <Observation>
  <id value="1516-lab"/>
    <text>
      <status value="generated"/>
      <div xmlns="http://www.w3.org/1999/xhtml">2004-01-03: ALP SerPl-cCnc = 99 U/L</div>
    </text>
    <code>
      <coding>
        <system value="http://loinc.org"/>
        <code value="6768-6"/>
        <display value="ALP SerPl-cCnc"/>
      </coding>
      <text value="ALP SerPl-cCnc"/>
    </code>
    <valueQuantity>
      <value value="99.0"/>
      <unit value="U/L"/>
      <system value="http://unitsofmeasure.org" />
      <code value=""/>
    </valueQuantity>
    
    <effectiveDateTime value="2004-01-03"/>
    <status value="final"/>
    <subject>
      <reference value="Patient/1768562"/>
    </subject>
    <referenceRange>
      <meaning>
        <coding>
         <system value="http://hl7.org/fhir/referencerange-meaning"/>
         <code value="normal"/>
         <display value="Normal Range"/>
       </coding>
       <text value="Normal Range"/>
      </meaning>
      <low>
        <value value="38.0"/>
        <unit value="U/L"/>
        <code value="U/L"/>
        <system value="http://unitsofmeasure.org"/>
      </low>
      <high>
        <value value="126.0"/>
        <unit value="U/L"/>
        <code value="U/L"/>
        <system value="http://unitsofmeasure.org"/>
      </high>
    </referenceRange>
    
  </Observation>
  
  </resource>
  <request>
    <method value="POST"/>
    <url value="Observation/1516-lab"/>
  </request>
</entry>
<entry>
  <resource>
    
    
  <Observation>
  <id value="1517-lab"/>
    <text>
      <status value="generated"/>
      <div xmlns="http://www.w3.org/1999/xhtml">2004-01-03: MCHC RBC Auto-mCnc = 33.8 g/dL</div>
    </text>
    <code>
      <coding>
        <system value="http://loinc.org"/>
        <code value="786-4"/>
        <display value="MCHC RBC Auto-mCnc"/>
      </coding>
      <text value="MCHC RBC Auto-mCnc"/>
    </code>
    <valueQuantity>
      <value value="33.8"/>
      <unit value="g/dL"/>
      <system value="http://unitsofmeasure.org" />
      <code value=""/>
    </valueQuantity>
    
    <effectiveDateTime value="2004-01-03"/>
    <status value="final"/>
    <subject>
      <reference value="Patient/1768562"/>
    </subject>
    <referenceRange>
      <meaning>
        <coding>
         <system value="http://hl7.org/fhir/referencerange-meaning"/>
         <code value="normal"/>
         <display value="Normal Range"/>
       </coding>
       <text value="Normal Range"/>
      </meaning>
      <low>
        <value value="32.0"/>
        <unit value="g/dL"/>
        <code value="g/dL"/>
        <system value="http://unitsofmeasure.org"/>
      </low>
      <high>
        <value value="36.0"/>
        <unit value="g/dL"/>
        <code value="g/dL"/>
        <system value="http://unitsofmeasure.org"/>
      </high>
    </referenceRange>
    
  </Observation>
  
  </resource>
  <request>
    <method value="POST"/>
    <url value="Observation/1517-lab"/>
  </request>
</entry>
<entry>
  <resource>
    
    
  <Observation>
  <id value="1518-lab"/>
    <text>
      <status value="generated"/>
      <div xmlns="http://www.w3.org/1999/xhtml">2004-01-03: MCH RBC Qn Auto = 29.5 pg</div>
    </text>
    <code>
      <coding>
        <system value="http://loinc.org"/>
        <code value="785-6"/>
        <display value="MCH RBC Qn Auto"/>
      </coding>
      <text value="MCH RBC Qn Auto"/>
    </code>
    <valueQuantity>
      <value value="29.5"/>
      <unit value="pg"/>
      <system value="http://unitsofmeasure.org" />
      <code value=""/>
    </valueQuantity>
    
    <effectiveDateTime value="2004-01-03"/>
    <status value="final"/>
    <subject>
      <reference value="Patient/1768562"/>
    </subject>
    <referenceRange>
      <meaning>
        <coding>
         <system value="http://hl7.org/fhir/referencerange-meaning"/>
         <code value="normal"/>
         <display value="Normal Range"/>
       </coding>
       <text value="Normal Range"/>
      </meaning>
      <low>
        <value value="27.0"/>
        <unit value="pg"/>
        <code value="pg"/>
        <system value="http://unitsofmeasure.org"/>
      </low>
      <high>
        <value value="31.0"/>
        <unit value="pg"/>
        <code value="pg"/>
        <system value="http://unitsofmeasure.org"/>
      </high>
    </referenceRange>
    
  </Observation>
  
  </resource>
  <request>
    <method value="POST"/>
    <url value="Observation/1518-lab"/>
  </request>
</entry>
<entry>
  <resource>
    
    
  <Observation>
  <id value="1519-lab"/>
    <text>
      <status value="generated"/>
      <div xmlns="http://www.w3.org/1999/xhtml">2004-01-03: MCV RBC = 87.2 fL</div>
    </text>
    <code>
      <coding>
        <system value="http://loinc.org"/>
        <code value="30428-7"/>
        <display value="MCV RBC"/>
      </coding>
      <text value="MCV RBC"/>
    </code>
    <valueQuantity>
      <value value="87.2"/>
      <unit value="fL"/>
      <system value="http://unitsofmeasure.org" />
      <code value=""/>
    </valueQuantity>
    
    <effectiveDateTime value="2004-01-03"/>
    <status value="final"/>
    <subject>
      <reference value="Patient/1768562"/>
    </subject>
    <referenceRange>
      <meaning>
        <coding>
         <system value="http://hl7.org/fhir/referencerange-meaning"/>
         <code value="normal"/>
         <display value="Normal Range"/>
       </coding>
       <text value="Normal Range"/>
      </meaning>
      <low>
        <value value="78.0"/>
        <unit value="fL"/>
        <code value="fL"/>
        <system value="http://unitsofmeasure.org"/>
      </low>
      <high>
        <value value="100.0"/>
        <unit value="fL"/>
        <code value="fL"/>
        <system value="http://unitsofmeasure.org"/>
      </high>
    </referenceRange>
    
  </Observation>
  
  </resource>
  <request>
    <method value="POST"/>
    <url value="Observation/1519-lab"/>
  </request>
</entry>
<entry>
  <resource>
    
    
  <Observation>
  <id value="1520-lab"/>
    <text>
      <status value="generated"/>
      <div xmlns="http://www.w3.org/1999/xhtml">2004-01-03: Sodium SerPl-sCnc = 138 mmol/L</div>
    </text>
    <code>
      <coding>
        <system value="http://loinc.org"/>
        <code value="2951-2"/>
        <display value="Sodium SerPl-sCnc"/>
      </coding>
      <text value="Sodium SerPl-sCnc"/>
    </code>
    <valueQuantity>
      <value value="138.0"/>
      <unit value="mmol/L"/>
      <system value="http://unitsofmeasure.org" />
      <code value=""/>
    </valueQuantity>
    
    <effectiveDateTime value="2004-01-03"/>
    <status value="final"/>
    <subject>
      <reference value="Patient/1768562"/>
    </subject>
    <referenceRange>
      <meaning>
        <coding>
         <system value="http://hl7.org/fhir/referencerange-meaning"/>
         <code value="normal"/>
         <display value="Normal Range"/>
       </coding>
       <text value="Normal Range"/>
      </meaning>
      <low>
        <value value="137.0"/>
        <unit value="mmol/L"/>
        <code value="mmol/L"/>
        <system value="http://unitsofmeasure.org"/>
      </low>
      <high>
        <value value="145.0"/>
        <unit value="mmol/L"/>
        <code value="mmol/L"/>
        <system value="http://unitsofmeasure.org"/>
      </high>
    </referenceRange>
    
  </Observation>
  
  </resource>
  <request>
    <method value="POST"/>
    <url value="Observation/1520-lab"/>
  </request>
</entry>
<entry>
  <resource>
    
    
  <Observation>
  <id value="1521-lab"/>
    <text>
      <status value="generated"/>
      <div xmlns="http://www.w3.org/1999/xhtml">2004-01-03: TSH SerPl DL&lt;=0.005 mU/L-aCnc = 3.33 mcU/mL</div>
    </text>
    <code>
      <coding>
        <system value="http://loinc.org"/>
        <code value="11580-8"/>
        <display value="TSH SerPl DL&lt;=0.005 mU/L-aCnc"/>
      </coding>
      <text value="TSH SerPl DL&lt;=0.005 mU/L-aCnc"/>
    </code>
    <valueQuantity>
      <value value="3.33"/>
      <unit value="mcU/mL"/>
      <system value="http://unitsofmeasure.org" />
      <code value=""/>
    </valueQuantity>
    
    <effectiveDateTime value="2004-01-03"/>
    <status value="final"/>
    <subject>
      <reference value="Patient/1768562"/>
    </subject>
    <referenceRange>
      <meaning>
        <coding>
         <system value="http://hl7.org/fhir/referencerange-meaning"/>
         <code value="normal"/>
         <display value="Normal Range"/>
       </coding>
       <text value="Normal Range"/>
      </meaning>
      <low>
        <value value="0.4"/>
        <unit value="mcU/mL"/>
        <code value="mcU/mL"/>
        <system value="http://unitsofmeasure.org"/>
      </low>
      <high>
        <value value="5.5"/>
        <unit value="mcU/mL"/>
        <code value="mcU/mL"/>
        <system value="http://unitsofmeasure.org"/>
      </high>
    </referenceRange>
    
  </Observation>
  
  </resource>
  <request>
    <method value="POST"/>
    <url value="Observation/1521-lab"/>
  </request>
</entry>
<entry>
  <resource>
    
    
  <Observation>
  <id value="1522-lab"/>
    <text>
      <status value="generated"/>
      <div xmlns="http://www.w3.org/1999/xhtml">2004-01-03: Calcium SerPl-mCnc = 8.7 mg/dL</div>
    </text>
    <code>
      <coding>
        <system value="http://loinc.org"/>
        <code value="17861-6"/>
        <display value="Calcium SerPl-mCnc"/>
      </coding>
      <text value="Calcium SerPl-mCnc"/>
    </code>
    <valueQuantity>
      <value value="8.7"/>
      <unit value="mg/dL"/>
      <system value="http://unitsofmeasure.org" />
      <code value=""/>
    </valueQuantity>
    
    <effectiveDateTime value="2004-01-03"/>
    <status value="final"/>
    <subject>
      <reference value="Patient/1768562"/>
    </subject>
    <referenceRange>
      <meaning>
        <coding>
         <system value="http://hl7.org/fhir/referencerange-meaning"/>
         <code value="normal"/>
         <display value="Normal Range"/>
       </coding>
       <text value="Normal Range"/>
      </meaning>
      <low>
        <value value="8.4"/>
        <unit value="mg/dL"/>
        <code value="mg/dL"/>
        <system value="http://unitsofmeasure.org"/>
      </low>
      <high>
        <value value="10.2"/>
        <unit value="mg/dL"/>
        <code value="mg/dL"/>
        <system value="http://unitsofmeasure.org"/>
      </high>
    </referenceRange>
    
  </Observation>
  
  </resource>
  <request>
    <method value="POST"/>
    <url value="Observation/1522-lab"/>
  </request>
</entry>
<entry>
  <resource>
    
    
  <Observation>
  <id value="1523-lab"/>
    <text>
      <status value="generated"/>
      <div xmlns="http://www.w3.org/1999/xhtml">2004-01-03: RBC # Bld Auto = 4.96 10*6/uL</div>
    </text>
    <code>
      <coding>
        <system value="http://loinc.org"/>
        <code value="789-8"/>
        <display value="RBC # Bld Auto"/>
      </coding>
      <text value="RBC # Bld Auto"/>
    </code>
    <valueQuantity>
      <value value="4.96"/>
      <unit value="10*6/uL"/>
      <system value="http://unitsofmeasure.org" />
      <code value=""/>
    </valueQuantity>
    
    <effectiveDateTime value="2004-01-03"/>
    <status value="final"/>
    <subject>
      <reference value="Patient/1768562"/>
    </subject>
    <referenceRange>
      <meaning>
        <coding>
         <system value="http://hl7.org/fhir/referencerange-meaning"/>
         <code value="normal"/>
         <display value="Normal Range"/>
       </coding>
       <text value="Normal Range"/>
      </meaning>
      <low>
        <value value="4.7"/>
        <unit value="10*6/uL"/>
        <code value="10*6/uL"/>
        <system value="http://unitsofmeasure.org"/>
      </low>
      <high>
        <value value="6.0"/>
        <unit value="10*6/uL"/>
        <code value="10*6/uL"/>
        <system value="http://unitsofmeasure.org"/>
      </high>
    </referenceRange>
    
  </Observation>
  
  </resource>
  <request>
    <method value="POST"/>
    <url value="Observation/1523-lab"/>
  </request>
</entry>
<entry>
  <resource>
    
    
  <Observation>
  <id value="1524-lab"/>
    <text>
      <status value="generated"/>
      <div xmlns="http://www.w3.org/1999/xhtml">2004-01-03: Glucose SerPl-mCnc = 86 mg/dL</div>
    </text>
    <code>
      <coding>
        <system value="http://loinc.org"/>
        <code value="2345-7"/>
        <display value="Glucose SerPl-mCnc"/>
      </coding>
      <text value="Glucose SerPl-mCnc"/>
    </code>
    <valueQuantity>
      <value value="86.0"/>
      <unit value="mg/dL"/>
      <system value="http://unitsofmeasure.org" />
      <code value=""/>
    </valueQuantity>
    
    <effectiveDateTime value="2004-01-03"/>
    <status value="final"/>
    <subject>
      <reference value="Patient/1768562"/>
    </subject>
    <referenceRange>
      <meaning>
        <coding>
         <system value="http://hl7.org/fhir/referencerange-meaning"/>
         <code value="normal"/>
         <display value="Normal Range"/>
       </coding>
       <text value="Normal Range"/>
      </meaning>
      <low>
        <value value="70.0"/>
        <unit value="mg/dL"/>
        <code value="mg/dL"/>
        <system value="http://unitsofmeasure.org"/>
      </low>
      <high>
        <value value="110.0"/>
        <unit value="mg/dL"/>
        <code value="mg/dL"/>
        <system value="http://unitsofmeasure.org"/>
      </high>
    </referenceRange>
    
  </Observation>
  
  </resource>
  <request>
    <method value="POST"/>
    <url value="Observation/1524-lab"/>
  </request>
</entry>
<entry>
  <resource>
    
    
  <Observation>
  <id value="1525-lab"/>
    <text>
      <status value="generated"/>
      <div xmlns="http://www.w3.org/1999/xhtml">2004-01-03: BUN SerPl-mCnc = 24 mg/dL</div>
    </text>
    <code>
      <coding>
        <system value="http://loinc.org"/>
        <code value="3094-0"/>
        <display value="BUN SerPl-mCnc"/>
      </coding>
      <text value="BUN SerPl-mCnc"/>
    </code>
    <valueQuantity>
      <value value="24.0"/>
      <unit value="mg/dL"/>
      <system value="http://unitsofmeasure.org" />
      <code value=""/>
    </valueQuantity>
    
    <effectiveDateTime value="2004-01-03"/>
    <status value="final"/>
    <subject>
      <reference value="Patient/1768562"/>
    </subject>
    <referenceRange>
      <meaning>
        <coding>
         <system value="http://hl7.org/fhir/referencerange-meaning"/>
         <code value="normal"/>
         <display value="Normal Range"/>
       </coding>
       <text value="Normal Range"/>
      </meaning>
      <low>
        <value value="9.0"/>
        <unit value="mg/dL"/>
        <code value="mg/dL"/>
        <system value="http://unitsofmeasure.org"/>
      </low>
      <high>
        <value value="20.0"/>
        <unit value="mg/dL"/>
        <code value="mg/dL"/>
        <system value="http://unitsofmeasure.org"/>
      </high>
    </referenceRange>
    
  </Observation>
  
  </resource>
  <request>
    <method value="POST"/>
    <url value="Observation/1525-lab"/>
  </request>
</entry>
<entry>
  <resource>
    
    
  <Observation>
  <id value="1526-lab"/>
    <text>
      <status value="generated"/>
      <div xmlns="http://www.w3.org/1999/xhtml">2004-01-03: Hgb Bld-mCnc = 14.6 g/dL</div>
    </text>
    <code>
      <coding>
        <system value="http://loinc.org"/>
        <code value="718-7"/>
        <display value="Hgb Bld-mCnc"/>
      </coding>
      <text value="Hgb Bld-mCnc"/>
    </code>
    <valueQuantity>
      <value value="14.6"/>
      <unit value="g/dL"/>
      <system value="http://unitsofmeasure.org" />
      <code value=""/>
    </valueQuantity>
    
    <effectiveDateTime value="2004-01-03"/>
    <status value="final"/>
    <subject>
      <reference value="Patient/1768562"/>
    </subject>
    <referenceRange>
      <meaning>
        <coding>
         <system value="http://hl7.org/fhir/referencerange-meaning"/>
         <code value="normal"/>
         <display value="Normal Range"/>
       </coding>
       <text value="Normal Range"/>
      </meaning>
      <low>
        <value value="13.5"/>
        <unit value="g/dL"/>
        <code value="g/dL"/>
        <system value="http://unitsofmeasure.org"/>
      </low>
      <high>
        <value value="18.0"/>
        <unit value="g/dL"/>
        <code value="g/dL"/>
        <system value="http://unitsofmeasure.org"/>
      </high>
    </referenceRange>
    
  </Observation>
  
  </resource>
  <request>
    <method value="POST"/>
    <url value="Observation/1526-lab"/>
  </request>
</entry>
<entry>
  <resource>
    
    
  <Observation>
  <id value="1527-lab"/>
    <text>
      <status value="generated"/>
      <div xmlns="http://www.w3.org/1999/xhtml">2004-01-03: WBC # Bld = 8.5 10*3/uL</div>
    </text>
    <code>
      <coding>
        <system value="http://loinc.org"/>
        <code value="26464-8"/>
        <display value="WBC # Bld"/>
      </coding>
      <text value="WBC # Bld"/>
    </code>
    <valueQuantity>
      <value value="8.5"/>
      <unit value="10*3/uL"/>
      <system value="http://unitsofmeasure.org" />
      <code value=""/>
    </valueQuantity>
    
    <effectiveDateTime value="2004-01-03"/>
    <status value="final"/>
    <subject>
      <reference value="Patient/1768562"/>
    </subject>
    <referenceRange>
      <meaning>
        <coding>
         <system value="http://hl7.org/fhir/referencerange-meaning"/>
         <code value="normal"/>
         <display value="Normal Range"/>
       </coding>
       <text value="Normal Range"/>
      </meaning>
      <low>
        <value value="4.0"/>
        <unit value="10*3/uL"/>
        <code value="10*3/uL"/>
        <system value="http://unitsofmeasure.org"/>
      </low>
      <high>
        <value value="10.5"/>
        <unit value="10*3/uL"/>
        <code value="10*3/uL"/>
        <system value="http://unitsofmeasure.org"/>
      </high>
    </referenceRange>
    
  </Observation>
  
  </resource>
  <request>
    <method value="POST"/>
    <url value="Observation/1527-lab"/>
  </request>
</entry>
<entry>
  <resource>
    
    
  <Observation>
  <id value="1528-lab"/>
    <text>
      <status value="generated"/>
      <div xmlns="http://www.w3.org/1999/xhtml">2004-01-03: Creat SerPl-mCnc = 1.2 mg/dL</div>
    </text>
    <code>
      <coding>
        <system value="http://loinc.org"/>
        <code value="2160-0"/>
        <display value="Creat SerPl-mCnc"/>
      </coding>
      <text value="Creat SerPl-mCnc"/>
    </code>
    <valueQuantity>
      <value value="1.2"/>
      <unit value="mg/dL"/>
      <system value="http://unitsofmeasure.org" />
      <code value=""/>
    </valueQuantity>
    
    <effectiveDateTime value="2004-01-03"/>
    <status value="final"/>
    <subject>
      <reference value="Patient/1768562"/>
    </subject>
    <referenceRange>
      <meaning>
        <coding>
         <system value="http://hl7.org/fhir/referencerange-meaning"/>
         <code value="normal"/>
         <display value="Normal Range"/>
       </coding>
       <text value="Normal Range"/>
      </meaning>
      <low>
        <value value="0.8"/>
        <unit value="mg/dL"/>
        <code value="mg/dL"/>
        <system value="http://unitsofmeasure.org"/>
      </low>
      <high>
        <value value="1.5"/>
        <unit value="mg/dL"/>
        <code value="mg/dL"/>
        <system value="http://unitsofmeasure.org"/>
      </high>
    </referenceRange>
    
  </Observation>
  
  </resource>
  <request>
    <method value="POST"/>
    <url value="Observation/1528-lab"/>
  </request>
</entry>
<entry>
  <resource>
    
    
  <Observation>
  <id value="1529-lab"/>
    <text>
      <status value="generated"/>
      <div xmlns="http://www.w3.org/1999/xhtml">2004-01-03: ALT SerPl-cCnc = 26 U/L</div>
    </text>
    <code>
      <coding>
        <system value="http://loinc.org"/>
        <code value="1742-6"/>
        <display value="ALT SerPl-cCnc"/>
      </coding>
      <text value="ALT SerPl-cCnc"/>
    </code>
    <valueQuantity>
      <value value="26.0"/>
      <unit value="U/L"/>
      <system value="http://unitsofmeasure.org" />
      <code value=""/>
    </valueQuantity>
    
    <effectiveDateTime value="2004-01-03"/>
    <status value="final"/>
    <subject>
      <reference value="Patient/1768562"/>
    </subject>
    <referenceRange>
      <meaning>
        <coding>
         <system value="http://hl7.org/fhir/referencerange-meaning"/>
         <code value="normal"/>
         <display value="Normal Range"/>
       </coding>
       <text value="Normal Range"/>
      </meaning>
      <low>
        <value value="21.0"/>
        <unit value="U/L"/>
        <code value="U/L"/>
        <system value="http://unitsofmeasure.org"/>
      </low>
      <high>
        <value value="72.0"/>
        <unit value="U/L"/>
        <code value="U/L"/>
        <system value="http://unitsofmeasure.org"/>
      </high>
    </referenceRange>
    
  </Observation>
  
  </resource>
  <request>
    <method value="POST"/>
    <url value="Observation/1529-lab"/>
  </request>
</entry>
<entry>
  <resource>
    
    
  <Observation>
  <id value="1530-lab"/>
    <text>
      <status value="generated"/>
      <div xmlns="http://www.w3.org/1999/xhtml">2004-01-03: PMV Bld = 7.3 fL</div>
    </text>
    <code>
      <coding>
        <system value="http://loinc.org"/>
        <code value="28542-9"/>
        <display value="PMV Bld"/>
      </coding>
      <text value="PMV Bld"/>
    </code>
    <valueQuantity>
      <value value="7.3"/>
      <unit value="fL"/>
      <system value="http://unitsofmeasure.org" />
      <code value=""/>
    </valueQuantity>
    
    <effectiveDateTime value="2004-01-03"/>
    <status value="final"/>
    <subject>
      <reference value="Patient/1768562"/>
    </subject>
    <referenceRange>
      <meaning>
        <coding>
         <system value="http://hl7.org/fhir/referencerange-meaning"/>
         <code value="normal"/>
         <display value="Normal Range"/>
       </coding>
       <text value="Normal Range"/>
      </meaning>
      <low>
        <value value="6.0"/>
        <unit value="fL"/>
        <code value="fL"/>
        <system value="http://unitsofmeasure.org"/>
      </low>
      <high>
        <value value="9.5"/>
        <unit value="fL"/>
        <code value="fL"/>
        <system value="http://unitsofmeasure.org"/>
      </high>
    </referenceRange>
    
  </Observation>
  
  </resource>
  <request>
    <method value="POST"/>
    <url value="Observation/1530-lab"/>
  </request>
</entry>
<entry>
  <resource>
    
    
  <Observation>
  <id value="1531-lab"/>
    <text>
      <status value="generated"/>
      <div xmlns="http://www.w3.org/1999/xhtml">2004-01-03: Potassium SerPl-sCnc = 5 mmol/L</div>
    </text>
    <code>
      <coding>
        <system value="http://loinc.org"/>
        <code value="2823-3"/>
        <display value="Potassium SerPl-sCnc"/>
      </coding>
      <text value="Potassium SerPl-sCnc"/>
    </code>
    <valueQuantity>
      <value value="5.0"/>
      <unit value="mmol/L"/>
      <system value="http://unitsofmeasure.org" />
      <code value=""/>
    </valueQuantity>
    
    <effectiveDateTime value="2004-01-03"/>
    <status value="final"/>
    <subject>
      <reference value="Patient/1768562"/>
    </subject>
    <referenceRange>
      <meaning>
        <coding>
         <system value="http://hl7.org/fhir/referencerange-meaning"/>
         <code value="normal"/>
         <display value="Normal Range"/>
       </coding>
       <text value="Normal Range"/>
      </meaning>
      <low>
        <value value="3.6"/>
        <unit value="mmol/L"/>
        <code value="mmol/L"/>
        <system value="http://unitsofmeasure.org"/>
      </low>
      <high>
        <value value="5.5"/>
        <unit value="mmol/L"/>
        <code value="mmol/L"/>
        <system value="http://unitsofmeasure.org"/>
      </high>
    </referenceRange>
    
  </Observation>
  
  </resource>
  <request>
    <method value="POST"/>
    <url value="Observation/1531-lab"/>
  </request>
</entry>
<entry>
  <resource>
    
    
  <Observation>
  <id value="1532-lab"/>
    <text>
      <status value="generated"/>
      <div xmlns="http://www.w3.org/1999/xhtml">2004-01-03: RDW RBC-Rto = 12.5 %</div>
    </text>
    <code>
      <coding>
        <system value="http://loinc.org"/>
        <code value="30385-9"/>
        <display value="RDW RBC-Rto"/>
      </coding>
      <text value="RDW RBC-Rto"/>
    </code>
    <valueQuantity>
      <value value="12.5"/>
      <unit value="%"/>
      <system value="http://unitsofmeasure.org" />
      <code value=""/>
    </valueQuantity>
    
    <effectiveDateTime value="2004-01-03"/>
    <status value="final"/>
    <subject>
      <reference value="Patient/1768562"/>
    </subject>
    <referenceRange>
      <meaning>
        <coding>
         <system value="http://hl7.org/fhir/referencerange-meaning"/>
         <code value="normal"/>
         <display value="Normal Range"/>
       </coding>
       <text value="Normal Range"/>
      </meaning>
      <low>
        <value value="11.5"/>
        <unit value="%"/>
        <code value="%"/>
        <system value="http://unitsofmeasure.org"/>
      </low>
      <high>
        <value value="14.0"/>
        <unit value="%"/>
        <code value="%"/>
        <system value="http://unitsofmeasure.org"/>
      </high>
    </referenceRange>
    
  </Observation>
  
  </resource>
  <request>
    <method value="POST"/>
    <url value="Observation/1532-lab"/>
  </request>
</entry>
<entry>
  <resource>
    
    
  <Observation>
  <id value="1533-lab"/>
    <text>
      <status value="generated"/>
      <div xmlns="http://www.w3.org/1999/xhtml">2004-01-03: Chloride SerPl-sCnc = 101 mmol/L</div>
    </text>
    <code>
      <coding>
        <system value="http://loinc.org"/>
        <code value="2075-0"/>
        <display value="Chloride SerPl-sCnc"/>
      </coding>
      <text value="Chloride SerPl-sCnc"/>
    </code>
    <valueQuantity>
      <value value="101.0"/>
      <unit value="mmol/L"/>
      <system value="http://unitsofmeasure.org" />
      <code value=""/>
    </valueQuantity>
    
    <effectiveDateTime value="2004-01-03"/>
    <status value="final"/>
    <subject>
      <reference value="Patient/1768562"/>
    </subject>
    <referenceRange>
      <meaning>
        <coding>
         <system value="http://hl7.org/fhir/referencerange-meaning"/>
         <code value="normal"/>
         <display value="Normal Range"/>
       </coding>
       <text value="Normal Range"/>
      </meaning>
      <low>
        <value value="98.0"/>
        <unit value="mmol/L"/>
        <code value="mmol/L"/>
        <system value="http://unitsofmeasure.org"/>
      </low>
      <high>
        <value value="107.0"/>
        <unit value="mmol/L"/>
        <code value="mmol/L"/>
        <system value="http://unitsofmeasure.org"/>
      </high>
    </referenceRange>
    
  </Observation>
  
  </resource>
  <request>
    <method value="POST"/>
    <url value="Observation/1533-lab"/>
  </request>
</entry>
<entry>
  <resource>
    
    
  <Observation>
  <id value="1534-lab"/>
    <text>
      <status value="generated"/>
      <div xmlns="http://www.w3.org/1999/xhtml">2004-01-06: Sodium SerPl-sCnc = 137 mmol/L</div>
    </text>
    <code>
      <coding>
        <system value="http://loinc.org"/>
        <code value="2951-2"/>
        <display value="Sodium SerPl-sCnc"/>
      </coding>
      <text value="Sodium SerPl-sCnc"/>
    </code>
    <valueQuantity>
      <value value="137.0"/>
      <unit value="mmol/L"/>
      <system value="http://unitsofmeasure.org" />
      <code value=""/>
    </valueQuantity>
    
    <effectiveDateTime value="2004-01-06"/>
    <status value="final"/>
    <subject>
      <reference value="Patient/1768562"/>
    </subject>
    <referenceRange>
      <meaning>
        <coding>
         <system value="http://hl7.org/fhir/referencerange-meaning"/>
         <code value="normal"/>
         <display value="Normal Range"/>
       </coding>
       <text value="Normal Range"/>
      </meaning>
      <low>
        <value value="137.0"/>
        <unit value="mmol/L"/>
        <code value="mmol/L"/>
        <system value="http://unitsofmeasure.org"/>
      </low>
      <high>
        <value value="145.0"/>
        <unit value="mmol/L"/>
        <code value="mmol/L"/>
        <system value="http://unitsofmeasure.org"/>
      </high>
    </referenceRange>
    
  </Observation>
  
  </resource>
  <request>
    <method value="POST"/>
    <url value="Observation/1534-lab"/>
  </request>
</entry>
<entry>
  <resource>
    
    
  <Observation>
  <id value="1535-lab"/>
    <text>
      <status value="generated"/>
      <div xmlns="http://www.w3.org/1999/xhtml">2004-01-06: Chloride SerPl-sCnc = 99 mmol/L</div>
    </text>
    <code>
      <coding>
        <system value="http://loinc.org"/>
        <code value="2075-0"/>
        <display value="Chloride SerPl-sCnc"/>
      </coding>
      <text value="Chloride SerPl-sCnc"/>
    </code>
    <valueQuantity>
      <value value="99.0"/>
      <unit value="mmol/L"/>
      <system value="http://unitsofmeasure.org" />
      <code value=""/>
    </valueQuantity>
    
    <effectiveDateTime value="2004-01-06"/>
    <status value="final"/>
    <subject>
      <reference value="Patient/1768562"/>
    </subject>
    <referenceRange>
      <meaning>
        <coding>
         <system value="http://hl7.org/fhir/referencerange-meaning"/>
         <code value="normal"/>
         <display value="Normal Range"/>
       </coding>
       <text value="Normal Range"/>
      </meaning>
      <low>
        <value value="98.0"/>
        <unit value="mmol/L"/>
        <code value="mmol/L"/>
        <system value="http://unitsofmeasure.org"/>
      </low>
      <high>
        <value value="107.0"/>
        <unit value="mmol/L"/>
        <code value="mmol/L"/>
        <system value="http://unitsofmeasure.org"/>
      </high>
    </referenceRange>
    
  </Observation>
  
  </resource>
  <request>
    <method value="POST"/>
    <url value="Observation/1535-lab"/>
  </request>
</entry>
<entry>
  <resource>
    
    
  <Observation>
  <id value="1536-lab"/>
    <text>
      <status value="generated"/>
      <div xmlns="http://www.w3.org/1999/xhtml">2004-01-06: Potassium SerPl-sCnc = 4.5 mmol/L</div>
    </text>
    <code>
      <coding>
        <system value="http://loinc.org"/>
        <code value="2823-3"/>
        <display value="Potassium SerPl-sCnc"/>
      </coding>
      <text value="Potassium SerPl-sCnc"/>
    </code>
    <valueQuantity>
      <value value="4.5"/>
      <unit value="mmol/L"/>
      <system value="http://unitsofmeasure.org" />
      <code value=""/>
    </valueQuantity>
    
    <effectiveDateTime value="2004-01-06"/>
    <status value="final"/>
    <subject>
      <reference value="Patient/1768562"/>
    </subject>
    <referenceRange>
      <meaning>
        <coding>
         <system value="http://hl7.org/fhir/referencerange-meaning"/>
         <code value="normal"/>
         <display value="Normal Range"/>
       </coding>
       <text value="Normal Range"/>
      </meaning>
      <low>
        <value value="3.6"/>
        <unit value="mmol/L"/>
        <code value="mmol/L"/>
        <system value="http://unitsofmeasure.org"/>
      </low>
      <high>
        <value value="5.5"/>
        <unit value="mmol/L"/>
        <code value="mmol/L"/>
        <system value="http://unitsofmeasure.org"/>
      </high>
    </referenceRange>
    
  </Observation>
  
  </resource>
  <request>
    <method value="POST"/>
    <url value="Observation/1536-lab"/>
  </request>
</entry>
<entry>
  <resource>
    
    
  <Observation>
  <id value="1537-lab"/>
    <text>
      <status value="generated"/>
      <div xmlns="http://www.w3.org/1999/xhtml">2004-01-06: Creat SerPl-mCnc = 1.2 mg/dL</div>
    </text>
    <code>
      <coding>
        <system value="http://loinc.org"/>
        <code value="2160-0"/>
        <display value="Creat SerPl-mCnc"/>
      </coding>
      <text value="Creat SerPl-mCnc"/>
    </code>
    <valueQuantity>
      <value value="1.2"/>
      <unit value="mg/dL"/>
      <system value="http://unitsofmeasure.org" />
      <code value=""/>
    </valueQuantity>
    
    <effectiveDateTime value="2004-01-06"/>
    <status value="final"/>
    <subject>
      <reference value="Patient/1768562"/>
    </subject>
    <referenceRange>
      <meaning>
        <coding>
         <system value="http://hl7.org/fhir/referencerange-meaning"/>
         <code value="normal"/>
         <display value="Normal Range"/>
       </coding>
       <text value="Normal Range"/>
      </meaning>
      <low>
        <value value="0.8"/>
        <unit value="mg/dL"/>
        <code value="mg/dL"/>
        <system value="http://unitsofmeasure.org"/>
      </low>
      <high>
        <value value="1.5"/>
        <unit value="mg/dL"/>
        <code value="mg/dL"/>
        <system value="http://unitsofmeasure.org"/>
      </high>
    </referenceRange>
    
  </Observation>
  
  </resource>
  <request>
    <method value="POST"/>
    <url value="Observation/1537-lab"/>
  </request>
</entry>
<entry>
  <resource>
    
    
  <Observation>
  <id value="1538-lab"/>
    <text>
      <status value="generated"/>
      <div xmlns="http://www.w3.org/1999/xhtml">2004-01-06: BUN SerPl-mCnc = 23 mg/dL</div>
    </text>
    <code>
      <coding>
        <system value="http://loinc.org"/>
        <code value="3094-0"/>
        <display value="BUN SerPl-mCnc"/>
      </coding>
      <text value="BUN SerPl-mCnc"/>
    </code>
    <valueQuantity>
      <value value="23.0"/>
      <unit value="mg/dL"/>
      <system value="http://unitsofmeasure.org" />
      <code value=""/>
    </valueQuantity>
    
    <effectiveDateTime value="2004-01-06"/>
    <status value="final"/>
    <subject>
      <reference value="Patient/1768562"/>
    </subject>
    <referenceRange>
      <meaning>
        <coding>
         <system value="http://hl7.org/fhir/referencerange-meaning"/>
         <code value="normal"/>
         <display value="Normal Range"/>
       </coding>
       <text value="Normal Range"/>
      </meaning>
      <low>
        <value value="9.0"/>
        <unit value="mg/dL"/>
        <code value="mg/dL"/>
        <system value="http://unitsofmeasure.org"/>
      </low>
      <high>
        <value value="20.0"/>
        <unit value="mg/dL"/>
        <code value="mg/dL"/>
        <system value="http://unitsofmeasure.org"/>
      </high>
    </referenceRange>
    
  </Observation>
  
  </resource>
  <request>
    <method value="POST"/>
    <url value="Observation/1538-lab"/>
  </request>
</entry>
<entry>
  <resource>
    
    
  <Observation>
  <id value="1539-lab"/>
    <text>
      <status value="generated"/>
      <div xmlns="http://www.w3.org/1999/xhtml">2004-01-06: Glucose SerPl-mCnc = 90 mg/dL</div>
    </text>
    <code>
      <coding>
        <system value="http://loinc.org"/>
        <code value="2345-7"/>
        <display value="Glucose SerPl-mCnc"/>
      </coding>
      <text value="Glucose SerPl-mCnc"/>
    </code>
    <valueQuantity>
      <value value="90.0"/>
      <unit value="mg/dL"/>
      <system value="http://unitsofmeasure.org" />
      <code value=""/>
    </valueQuantity>
    
    <effectiveDateTime value="2004-01-06"/>
    <status value="final"/>
    <subject>
      <reference value="Patient/1768562"/>
    </subject>
    <referenceRange>
      <meaning>
        <coding>
         <system value="http://hl7.org/fhir/referencerange-meaning"/>
         <code value="normal"/>
         <display value="Normal Range"/>
       </coding>
       <text value="Normal Range"/>
      </meaning>
      <low>
        <value value="70.0"/>
        <unit value="mg/dL"/>
        <code value="mg/dL"/>
        <system value="http://unitsofmeasure.org"/>
      </low>
      <high>
        <value value="110.0"/>
        <unit value="mg/dL"/>
        <code value="mg/dL"/>
        <system value="http://unitsofmeasure.org"/>
      </high>
    </referenceRange>
    
  </Observation>
  
  </resource>
  <request>
    <method value="POST"/>
    <url value="Observation/1539-lab"/>
  </request>
</entry>
<entry>
  <resource>
    
    
  <Observation>
  <id value="1540-lab"/>
    <text>
      <status value="generated"/>
      <div xmlns="http://www.w3.org/1999/xhtml">2004-01-06: Calcium SerPl-mCnc = 8.7 mg/dL</div>
    </text>
    <code>
      <coding>
        <system value="http://loinc.org"/>
        <code value="17861-6"/>
        <display value="Calcium SerPl-mCnc"/>
      </coding>
      <text value="Calcium SerPl-mCnc"/>
    </code>
    <valueQuantity>
      <value value="8.7"/>
      <unit value="mg/dL"/>
      <system value="http://unitsofmeasure.org" />
      <code value=""/>
    </valueQuantity>
    
    <effectiveDateTime value="2004-01-06"/>
    <status value="final"/>
    <subject>
      <reference value="Patient/1768562"/>
    </subject>
    <referenceRange>
      <meaning>
        <coding>
         <system value="http://hl7.org/fhir/referencerange-meaning"/>
         <code value="normal"/>
         <display value="Normal Range"/>
       </coding>
       <text value="Normal Range"/>
      </meaning>
      <low>
        <value value="8.4"/>
        <unit value="mg/dL"/>
        <code value="mg/dL"/>
        <system value="http://unitsofmeasure.org"/>
      </low>
      <high>
        <value value="10.2"/>
        <unit value="mg/dL"/>
        <code value="mg/dL"/>
        <system value="http://unitsofmeasure.org"/>
      </high>
    </referenceRange>
    
  </Observation>
  
  </resource>
  <request>
    <method value="POST"/>
    <url value="Observation/1540-lab"/>
  </request>
</entry>
<entry>
  <resource>
    
    
  <Observation>
  <id value="1541-lab"/>
    <text>
      <status value="generated"/>
      <div xmlns="http://www.w3.org/1999/xhtml">2004-01-03: CRP SerPl HS-mCnc = 2.4 mg/L</div>
    </text>
    <code>
      <coding>
        <system value="http://loinc.org"/>
        <code value="30522-7"/>
        <display value="CRP SerPl HS-mCnc"/>
      </coding>
      <text value="CRP SerPl HS-mCnc"/>
    </code>
    <valueQuantity>
      <value value="2.4"/>
      <unit value="mg/L"/>
      <system value="http://unitsofmeasure.org" />
      <code value=""/>
    </valueQuantity>
    
    <effectiveDateTime value="2004-01-03"/>
    <status value="final"/>
    <subject>
      <reference value="Patient/1768562"/>
    </subject>
    <referenceRange>
      <meaning>
        <coding>
         <system value="http://hl7.org/fhir/referencerange-meaning"/>
         <code value="normal"/>
         <display value="Normal Range"/>
       </coding>
       <text value="Normal Range"/>
      </meaning>
      <low>
        <value value="0.0"/>
        <unit value="mg/L"/>
        <code value="mg/L"/>
        <system value="http://unitsofmeasure.org"/>
      </low>
      <high>
        <value value="3.0"/>
        <unit value="mg/L"/>
        <code value="mg/L"/>
        <system value="http://unitsofmeasure.org"/>
      </high>
    </referenceRange>
    
  </Observation>
  
  </resource>
  <request>
    <method value="POST"/>
    <url value="Observation/1541-lab"/>
  </request>
</entry>
<entry>
  <resource>
    
    
<MedicationOrder>
  <id value="200"/>
  <text>
    <status value="generated"/>
    <div xmlns="http://www.w3.org/1999/xhtml">
      carvedilol 25 MG Oral Tablet (rxnorm: 200033)
    </div>
  </text>

  <status value="active" />
  <patient>
    <reference value="Patient/1768562"/>
  </patient>

  <medicationCodeableConcept>
    <coding>
        <system value="http://www.nlm.nih.gov/research/umls/rxnorm"/>
        <code value="200033"/>
        <display value="carvedilol 25 MG Oral Tablet"/>
    </coding>
    <text value="carvedilol 25 MG Oral Tablet"/>
  </medicationCodeableConcept>

  <dosageInstruction>
    <timing>
      <repeat>
        <boundsPeriod>
          <start value="2008-07-30"/>
        </boundsPeriod>
        <frequency value="1"/>
        <period value="1"/>
        <periodUnits value="d"/>
      </repeat>
      
    </timing>
    <doseQuantity>
      <value value="1"/>
      <unit value="{tablet}"/>
      <system value="http://unitsofmeasure.org"/>
      <code value="{tablet}"/>
    </doseQuantity>
    
    <text value="1 daily"/>
  </dosageInstruction>
  <dispenseRequest>
     <numberOfRepeatsAllowed value="1"/>
     
     <quantity>
        <value value="60"/>
        <unit value="{tablet}"/>
        <system value="http://unitsofmeasure.org"/>
        <code value="{tablet}"/>
     </quantity>
     
     <expectedSupplyDuration>
        <value value="30"/>
        <unit value="days"/>
        <system value="http://unitsofmeasure.org"/>
        <code value="d"/>
     </expectedSupplyDuration>
     
  </dispenseRequest>
  
</MedicationOrder>

  </resource>
  <request>
    <method value="POST"/>
    <url value="MedicationOrder/200"/>
  </request>
</entry>
<entry>
  <resource>
    
    
<MedicationDispense>
  <id value="259"/>
  <!--  insert contents here  -->
   <text>
    <status value="generated"/>
    <div xmlns="http://www.w3.org/1999/xhtml">
      Dispensed 60 tablets = 30 day supply of carvedilol 25 MG Oral Tablet
    </div>
  </text>

  <status value="completed"/>

  <patient>
    <reference value="Patient/1768562"/>
  </patient>

  <authorizingPrescription>
    <reference value="MedicationOrder/200"/>
  </authorizingPrescription>

  <quantity>
      <value value="60"/>
      <unit value="tablets"/>
      <system value="http://unitsofmeasure.org"/>
      <code value="{tablets}"/>
  </quantity>

  <daysSupply>
      <value value="30" />
      <unit value="days" />
      <system value="http://unitsofmeasure.org" />
      <code value="d" />
  </daysSupply>

  <medicationCodeableConcept>
    <coding>
        <system value="http://www.nlm.nih.gov/research/umls/rxnorm"/>
        <code value="200033"/>
        <display value="carvedilol 25 MG Oral Tablet"/>
    </coding>
    <text value="carvedilol 25 MG Oral Tablet"/>
  </medicationCodeableConcept>

  <whenHandedOver value="2009-01-10"/>

</MedicationDispense>

  </resource>
  <request>
    <method value="POST"/>
    <url value="MedicationDispense/259"/>
  </request>
</entry>
<entry>
  <resource>
    
    
<MedicationDispense>
  <id value="256"/>
  <!--  insert contents here  -->
   <text>
    <status value="generated"/>
    <div xmlns="http://www.w3.org/1999/xhtml">
      Dispensed 60 tablets = 30 day supply of carvedilol 25 MG Oral Tablet
    </div>
  </text>

  <status value="completed"/>

  <patient>
    <reference value="Patient/1768562"/>
  </patient>

  <authorizingPrescription>
    <reference value="MedicationOrder/200"/>
  </authorizingPrescription>

  <quantity>
      <value value="60"/>
      <unit value="tablets"/>
      <system value="http://unitsofmeasure.org"/>
      <code value="{tablets}"/>
  </quantity>

  <daysSupply>
      <value value="30" />
      <unit value="days" />
      <system value="http://unitsofmeasure.org" />
      <code value="d" />
  </daysSupply>

  <medicationCodeableConcept>
    <coding>
        <system value="http://www.nlm.nih.gov/research/umls/rxnorm"/>
        <code value="200033"/>
        <display value="carvedilol 25 MG Oral Tablet"/>
    </coding>
    <text value="carvedilol 25 MG Oral Tablet"/>
  </medicationCodeableConcept>

  <whenHandedOver value="2008-10-05"/>

</MedicationDispense>

  </resource>
  <request>
    <method value="POST"/>
    <url value="MedicationDispense/256"/>
  </request>
</entry>
<entry>
  <resource>
    
    
<MedicationDispense>
  <id value="261"/>
  <!--  insert contents here  -->
   <text>
    <status value="generated"/>
    <div xmlns="http://www.w3.org/1999/xhtml">
      Dispensed 60 tablets = 30 day supply of carvedilol 25 MG Oral Tablet
    </div>
  </text>

  <status value="completed"/>

  <patient>
    <reference value="Patient/1768562"/>
  </patient>

  <authorizingPrescription>
    <reference value="MedicationOrder/200"/>
  </authorizingPrescription>

  <quantity>
      <value value="60"/>
      <unit value="tablets"/>
      <system value="http://unitsofmeasure.org"/>
      <code value="{tablets}"/>
  </quantity>

  <daysSupply>
      <value value="30" />
      <unit value="days" />
      <system value="http://unitsofmeasure.org" />
      <code value="d" />
  </daysSupply>

  <medicationCodeableConcept>
    <coding>
        <system value="http://www.nlm.nih.gov/research/umls/rxnorm"/>
        <code value="200033"/>
        <display value="carvedilol 25 MG Oral Tablet"/>
    </coding>
    <text value="carvedilol 25 MG Oral Tablet"/>
  </medicationCodeableConcept>

  <whenHandedOver value="2009-03-12"/>

</MedicationDispense>

  </resource>
  <request>
    <method value="POST"/>
    <url value="MedicationDispense/261"/>
  </request>
</entry>
<entry>
  <resource>
    
    
<MedicationDispense>
  <id value="262"/>
  <!--  insert contents here  -->
   <text>
    <status value="generated"/>
    <div xmlns="http://www.w3.org/1999/xhtml">
      Dispensed 60 tablets = 30 day supply of carvedilol 25 MG Oral Tablet
    </div>
  </text>

  <status value="completed"/>

  <patient>
    <reference value="Patient/1768562"/>
  </patient>

  <authorizingPrescription>
    <reference value="MedicationOrder/200"/>
  </authorizingPrescription>

  <quantity>
      <value value="60"/>
      <unit value="tablets"/>
      <system value="http://unitsofmeasure.org"/>
      <code value="{tablets}"/>
  </quantity>

  <daysSupply>
      <value value="30" />
      <unit value="days" />
      <system value="http://unitsofmeasure.org" />
      <code value="d" />
  </daysSupply>

  <medicationCodeableConcept>
    <coding>
        <system value="http://www.nlm.nih.gov/research/umls/rxnorm"/>
        <code value="200033"/>
        <display value="carvedilol 25 MG Oral Tablet"/>
    </coding>
    <text value="carvedilol 25 MG Oral Tablet"/>
  </medicationCodeableConcept>

  <whenHandedOver value="2009-04-11"/>

</MedicationDispense>

  </resource>
  <request>
    <method value="POST"/>
    <url value="MedicationDispense/262"/>
  </request>
</entry>
<entry>
  <resource>
    
    
<MedicationDispense>
  <id value="258"/>
  <!--  insert contents here  -->
   <text>
    <status value="generated"/>
    <div xmlns="http://www.w3.org/1999/xhtml">
      Dispensed 60 tablets = 30 day supply of carvedilol 25 MG Oral Tablet
    </div>
  </text>

  <status value="completed"/>

  <patient>
    <reference value="Patient/1768562"/>
  </patient>

  <authorizingPrescription>
    <reference value="MedicationOrder/200"/>
  </authorizingPrescription>

  <quantity>
      <value value="60"/>
      <unit value="tablets"/>
      <system value="http://unitsofmeasure.org"/>
      <code value="{tablets}"/>
  </quantity>

  <daysSupply>
      <value value="30" />
      <unit value="days" />
      <system value="http://unitsofmeasure.org" />
      <code value="d" />
  </daysSupply>

  <medicationCodeableConcept>
    <coding>
        <system value="http://www.nlm.nih.gov/research/umls/rxnorm"/>
        <code value="200033"/>
        <display value="carvedilol 25 MG Oral Tablet"/>
    </coding>
    <text value="carvedilol 25 MG Oral Tablet"/>
  </medicationCodeableConcept>

  <whenHandedOver value="2008-12-06"/>

</MedicationDispense>

  </resource>
  <request>
    <method value="POST"/>
    <url value="MedicationDispense/258"/>
  </request>
</entry>
<entry>
  <resource>
    
    
<MedicationDispense>
  <id value="260"/>
  <!--  insert contents here  -->
   <text>
    <status value="generated"/>
    <div xmlns="http://www.w3.org/1999/xhtml">
      Dispensed 60 tablets = 30 day supply of carvedilol 25 MG Oral Tablet
    </div>
  </text>

  <status value="completed"/>

  <patient>
    <reference value="Patient/1768562"/>
  </patient>

  <authorizingPrescription>
    <reference value="MedicationOrder/200"/>
  </authorizingPrescription>

  <quantity>
      <value value="60"/>
      <unit value="tablets"/>
      <system value="http://unitsofmeasure.org"/>
      <code value="{tablets}"/>
  </quantity>

  <daysSupply>
      <value value="30" />
      <unit value="days" />
      <system value="http://unitsofmeasure.org" />
      <code value="d" />
  </daysSupply>

  <medicationCodeableConcept>
    <coding>
        <system value="http://www.nlm.nih.gov/research/umls/rxnorm"/>
        <code value="200033"/>
        <display value="carvedilol 25 MG Oral Tablet"/>
    </coding>
    <text value="carvedilol 25 MG Oral Tablet"/>
  </medicationCodeableConcept>

  <whenHandedOver value="2009-02-09"/>

</MedicationDispense>

  </resource>
  <request>
    <method value="POST"/>
    <url value="MedicationDispense/260"/>
  </request>
</entry>
<entry>
  <resource>
    
    
<MedicationDispense>
  <id value="264"/>
  <!--  insert contents here  -->
   <text>
    <status value="generated"/>
    <div xmlns="http://www.w3.org/1999/xhtml">
      Dispensed 60 tablets = 30 day supply of carvedilol 25 MG Oral Tablet
    </div>
  </text>

  <status value="completed"/>

  <patient>
    <reference value="Patient/1768562"/>
  </patient>

  <authorizingPrescription>
    <reference value="MedicationOrder/200"/>
  </authorizingPrescription>

  <quantity>
      <value value="60"/>
      <unit value="tablets"/>
      <system value="http://unitsofmeasure.org"/>
      <code value="{tablets}"/>
  </quantity>

  <daysSupply>
      <value value="30" />
      <unit value="days" />
      <system value="http://unitsofmeasure.org" />
      <code value="d" />
  </daysSupply>

  <medicationCodeableConcept>
    <coding>
        <system value="http://www.nlm.nih.gov/research/umls/rxnorm"/>
        <code value="200033"/>
        <display value="carvedilol 25 MG Oral Tablet"/>
    </coding>
    <text value="carvedilol 25 MG Oral Tablet"/>
  </medicationCodeableConcept>

  <whenHandedOver value="2009-06-13"/>

</MedicationDispense>

  </resource>
  <request>
    <method value="POST"/>
    <url value="MedicationDispense/264"/>
  </request>
</entry>
<entry>
  <resource>
    
    
<MedicationDispense>
  <id value="257"/>
  <!--  insert contents here  -->
   <text>
    <status value="generated"/>
    <div xmlns="http://www.w3.org/1999/xhtml">
      Dispensed 60 tablets = 30 day supply of carvedilol 25 MG Oral Tablet
    </div>
  </text>

  <status value="completed"/>

  <patient>
    <reference value="Patient/1768562"/>
  </patient>

  <authorizingPrescription>
    <reference value="MedicationOrder/200"/>
  </authorizingPrescription>

  <quantity>
      <value value="60"/>
      <unit value="tablets"/>
      <system value="http://unitsofmeasure.org"/>
      <code value="{tablets}"/>
  </quantity>

  <daysSupply>
      <value value="30" />
      <unit value="days" />
      <system value="http://unitsofmeasure.org" />
      <code value="d" />
  </daysSupply>

  <medicationCodeableConcept>
    <coding>
        <system value="http://www.nlm.nih.gov/research/umls/rxnorm"/>
        <code value="200033"/>
        <display value="carvedilol 25 MG Oral Tablet"/>
    </coding>
    <text value="carvedilol 25 MG Oral Tablet"/>
  </medicationCodeableConcept>

  <whenHandedOver value="2008-11-06"/>

</MedicationDispense>

  </resource>
  <request>
    <method value="POST"/>
    <url value="MedicationDispense/257"/>
  </request>
</entry>
<entry>
  <resource>
    
    
<MedicationDispense>
  <id value="255"/>
  <!--  insert contents here  -->
   <text>
    <status value="generated"/>
    <div xmlns="http://www.w3.org/1999/xhtml">
      Dispensed 60 tablets = 30 day supply of carvedilol 25 MG Oral Tablet
    </div>
  </text>

  <status value="completed"/>

  <patient>
    <reference value="Patient/1768562"/>
  </patient>

  <authorizingPrescription>
    <reference value="MedicationOrder/200"/>
  </authorizingPrescription>

  <quantity>
      <value value="60"/>
      <unit value="tablets"/>
      <system value="http://unitsofmeasure.org"/>
      <code value="{tablets}"/>
  </quantity>

  <daysSupply>
      <value value="30" />
      <unit value="days" />
      <system value="http://unitsofmeasure.org" />
      <code value="d" />
  </daysSupply>

  <medicationCodeableConcept>
    <coding>
        <system value="http://www.nlm.nih.gov/research/umls/rxnorm"/>
        <code value="200033"/>
        <display value="carvedilol 25 MG Oral Tablet"/>
    </coding>
    <text value="carvedilol 25 MG Oral Tablet"/>
  </medicationCodeableConcept>

  <whenHandedOver value="2008-08-31"/>

</MedicationDispense>

  </resource>
  <request>
    <method value="POST"/>
    <url value="MedicationDispense/255"/>
  </request>
</entry>
<entry>
  <resource>
    
    
<MedicationDispense>
  <id value="263"/>
  <!--  insert contents here  -->
   <text>
    <status value="generated"/>
    <div xmlns="http://www.w3.org/1999/xhtml">
      Dispensed 60 tablets = 30 day supply of carvedilol 25 MG Oral Tablet
    </div>
  </text>

  <status value="completed"/>

  <patient>
    <reference value="Patient/1768562"/>
  </patient>

  <authorizingPrescription>
    <reference value="MedicationOrder/200"/>
  </authorizingPrescription>

  <quantity>
      <value value="60"/>
      <unit value="tablets"/>
      <system value="http://unitsofmeasure.org"/>
      <code value="{tablets}"/>
  </quantity>

  <daysSupply>
      <value value="30" />
      <unit value="days" />
      <system value="http://unitsofmeasure.org" />
      <code value="d" />
  </daysSupply>

  <medicationCodeableConcept>
    <coding>
        <system value="http://www.nlm.nih.gov/research/umls/rxnorm"/>
        <code value="200033"/>
        <display value="carvedilol 25 MG Oral Tablet"/>
    </coding>
    <text value="carvedilol 25 MG Oral Tablet"/>
  </medicationCodeableConcept>

  <whenHandedOver value="2009-05-12"/>

</MedicationDispense>

  </resource>
  <request>
    <method value="POST"/>
    <url value="MedicationDispense/263"/>
  </request>
</entry>
<entry>
  <resource>
    
    
<MedicationDispense>
  <id value="266"/>
  <!--  insert contents here  -->
   <text>
    <status value="generated"/>
    <div xmlns="http://www.w3.org/1999/xhtml">
      Dispensed 60 tablets = 30 day supply of carvedilol 25 MG Oral Tablet
    </div>
  </text>

  <status value="completed"/>

  <patient>
    <reference value="Patient/1768562"/>
  </patient>

  <authorizingPrescription>
    <reference value="MedicationOrder/200"/>
  </authorizingPrescription>

  <quantity>
      <value value="60"/>
      <unit value="tablets"/>
      <system value="http://unitsofmeasure.org"/>
      <code value="{tablets}"/>
  </quantity>

  <daysSupply>
      <value value="30" />
      <unit value="days" />
      <system value="http://unitsofmeasure.org" />
      <code value="d" />
  </daysSupply>

  <medicationCodeableConcept>
    <coding>
        <system value="http://www.nlm.nih.gov/research/umls/rxnorm"/>
        <code value="200033"/>
        <display value="carvedilol 25 MG Oral Tablet"/>
    </coding>
    <text value="carvedilol 25 MG Oral Tablet"/>
  </medicationCodeableConcept>

  <whenHandedOver value="2009-08-12"/>

</MedicationDispense>

  </resource>
  <request>
    <method value="POST"/>
    <url value="MedicationDispense/266"/>
  </request>
</entry>
<entry>
  <resource>
    
    
<MedicationDispense>
  <id value="254"/>
  <!--  insert contents here  -->
   <text>
    <status value="generated"/>
    <div xmlns="http://www.w3.org/1999/xhtml">
      Dispensed 60 tablets = 30 day supply of carvedilol 25 MG Oral Tablet
    </div>
  </text>

  <status value="completed"/>

  <patient>
    <reference value="Patient/1768562"/>
  </patient>

  <authorizingPrescription>
    <reference value="MedicationOrder/200"/>
  </authorizingPrescription>

  <quantity>
      <value value="60"/>
      <unit value="tablets"/>
      <system value="http://unitsofmeasure.org"/>
      <code value="{tablets}"/>
  </quantity>

  <daysSupply>
      <value value="30" />
      <unit value="days" />
      <system value="http://unitsofmeasure.org" />
      <code value="d" />
  </daysSupply>

  <medicationCodeableConcept>
    <coding>
        <system value="http://www.nlm.nih.gov/research/umls/rxnorm"/>
        <code value="200033"/>
        <display value="carvedilol 25 MG Oral Tablet"/>
    </coding>
    <text value="carvedilol 25 MG Oral Tablet"/>
  </medicationCodeableConcept>

  <whenHandedOver value="2008-07-30"/>

</MedicationDispense>

  </resource>
  <request>
    <method value="POST"/>
    <url value="MedicationDispense/254"/>
  </request>
</entry>
<entry>
  <resource>
    
    
<MedicationDispense>
  <id value="265"/>
  <!--  insert contents here  -->
   <text>
    <status value="generated"/>
    <div xmlns="http://www.w3.org/1999/xhtml">
      Dispensed 60 tablets = 30 day supply of carvedilol 25 MG Oral Tablet
    </div>
  </text>

  <status value="completed"/>

  <patient>
    <reference value="Patient/1768562"/>
  </patient>

  <authorizingPrescription>
    <reference value="MedicationOrder/200"/>
  </authorizingPrescription>

  <quantity>
      <value value="60"/>
      <unit value="tablets"/>
      <system value="http://unitsofmeasure.org"/>
      <code value="{tablets}"/>
  </quantity>

  <daysSupply>
      <value value="30" />
      <unit value="days" />
      <system value="http://unitsofmeasure.org" />
      <code value="d" />
  </daysSupply>

  <medicationCodeableConcept>
    <coding>
        <system value="http://www.nlm.nih.gov/research/umls/rxnorm"/>
        <code value="200033"/>
        <display value="carvedilol 25 MG Oral Tablet"/>
    </coding>
    <text value="carvedilol 25 MG Oral Tablet"/>
  </medicationCodeableConcept>

  <whenHandedOver value="2009-07-15"/>

</MedicationDispense>

  </resource>
  <request>
    <method value="POST"/>
    <url value="MedicationDispense/265"/>
  </request>
</entry>
<entry>
  <resource>
    
    
<MedicationOrder>
  <id value="201"/>
  <text>
    <status value="generated"/>
    <div xmlns="http://www.w3.org/1999/xhtml">
      Digoxin 0.25 MG Oral Tablet [Lanoxin] (rxnorm: 309889)
    </div>
  </text>

  <status value="active" />
  <patient>
    <reference value="Patient/1768562"/>
  </patient>

  <medicationCodeableConcept>
    <coding>
        <system value="http://www.nlm.nih.gov/research/umls/rxnorm"/>
        <code value="309889"/>
        <display value="Digoxin 0.25 MG Oral Tablet [Lanoxin]"/>
    </coding>
    <text value="Digoxin 0.25 MG Oral Tablet [Lanoxin]"/>
  </medicationCodeableConcept>

  <dosageInstruction>
    <timing>
      <repeat>
        <boundsPeriod>
          <start value="2008-07-30"/>
        </boundsPeriod>
        <frequency value="1"/>
        <period value="1"/>
        <periodUnits value="d"/>
      </repeat>
      
    </timing>
    <doseQuantity>
      <value value="1"/>
      <unit value="{tablet}"/>
      <system value="http://unitsofmeasure.org"/>
      <code value="{tablet}"/>
    </doseQuantity>
    
    <text value="1 daily"/>
  </dosageInstruction>
  <dispenseRequest>
     <numberOfRepeatsAllowed value="1"/>
     
     <quantity>
        <value value="30"/>
        <unit value="{tablet}"/>
        <system value="http://unitsofmeasure.org"/>
        <code value="{tablet}"/>
     </quantity>
     
     <expectedSupplyDuration>
        <value value="30"/>
        <unit value="days"/>
        <system value="http://unitsofmeasure.org"/>
        <code value="d"/>
     </expectedSupplyDuration>
     
  </dispenseRequest>
  
</MedicationOrder>

  </resource>
  <request>
    <method value="POST"/>
    <url value="MedicationOrder/201"/>
  </request>
</entry>
<entry>
  <resource>
    
    
<MedicationDispense>
  <id value="295"/>
  <!--  insert contents here  -->
   <text>
    <status value="generated"/>
    <div xmlns="http://www.w3.org/1999/xhtml">
      Dispensed 30 tablets = 30 day supply of Digoxin 0.25 MG Oral Tablet [Lanoxin]
    </div>
  </text>

  <status value="completed"/>

  <patient>
    <reference value="Patient/1768562"/>
  </patient>

  <authorizingPrescription>
    <reference value="MedicationOrder/201"/>
  </authorizingPrescription>

  <quantity>
      <value value="30"/>
      <unit value="tablets"/>
      <system value="http://unitsofmeasure.org"/>
      <code value="{tablets}"/>
  </quantity>

  <daysSupply>
      <value value="30" />
      <unit value="days" />
      <system value="http://unitsofmeasure.org" />
      <code value="d" />
  </daysSupply>

  <medicationCodeableConcept>
    <coding>
        <system value="http://www.nlm.nih.gov/research/umls/rxnorm"/>
        <code value="309889"/>
        <display value="Digoxin 0.25 MG Oral Tablet [Lanoxin]"/>
    </coding>
    <text value="Digoxin 0.25 MG Oral Tablet [Lanoxin]"/>
  </medicationCodeableConcept>

  <whenHandedOver value="2009-02-28"/>

</MedicationDispense>

  </resource>
  <request>
    <method value="POST"/>
    <url value="MedicationDispense/295"/>
  </request>
</entry>
<entry>
  <resource>
    
    
<MedicationDispense>
  <id value="298"/>
  <!--  insert contents here  -->
   <text>
    <status value="generated"/>
    <div xmlns="http://www.w3.org/1999/xhtml">
      Dispensed 30 tablets = 30 day supply of Digoxin 0.25 MG Oral Tablet [Lanoxin]
    </div>
  </text>

  <status value="completed"/>

  <patient>
    <reference value="Patient/1768562"/>
  </patient>

  <authorizingPrescription>
    <reference value="MedicationOrder/201"/>
  </authorizingPrescription>

  <quantity>
      <value value="30"/>
      <unit value="tablets"/>
      <system value="http://unitsofmeasure.org"/>
      <code value="{tablets}"/>
  </quantity>

  <daysSupply>
      <value value="30" />
      <unit value="days" />
      <system value="http://unitsofmeasure.org" />
      <code value="d" />
  </daysSupply>

  <medicationCodeableConcept>
    <coding>
        <system value="http://www.nlm.nih.gov/research/umls/rxnorm"/>
        <code value="309889"/>
        <display value="Digoxin 0.25 MG Oral Tablet [Lanoxin]"/>
    </coding>
    <text value="Digoxin 0.25 MG Oral Tablet [Lanoxin]"/>
  </medicationCodeableConcept>

  <whenHandedOver value="2009-05-27"/>

</MedicationDispense>

  </resource>
  <request>
    <method value="POST"/>
    <url value="MedicationDispense/298"/>
  </request>
</entry>
<entry>
  <resource>
    
    
<MedicationDispense>
  <id value="290"/>
  <!--  insert contents here  -->
   <text>
    <status value="generated"/>
    <div xmlns="http://www.w3.org/1999/xhtml">
      Dispensed 30 tablets = 30 day supply of Digoxin 0.25 MG Oral Tablet [Lanoxin]
    </div>
  </text>

  <status value="completed"/>

  <patient>
    <reference value="Patient/1768562"/>
  </patient>

  <authorizingPrescription>
    <reference value="MedicationOrder/201"/>
  </authorizingPrescription>

  <quantity>
      <value value="30"/>
      <unit value="tablets"/>
      <system value="http://unitsofmeasure.org"/>
      <code value="{tablets}"/>
  </quantity>

  <daysSupply>
      <value value="30" />
      <unit value="days" />
      <system value="http://unitsofmeasure.org" />
      <code value="d" />
  </daysSupply>

  <medicationCodeableConcept>
    <coding>
        <system value="http://www.nlm.nih.gov/research/umls/rxnorm"/>
        <code value="309889"/>
        <display value="Digoxin 0.25 MG Oral Tablet [Lanoxin]"/>
    </coding>
    <text value="Digoxin 0.25 MG Oral Tablet [Lanoxin]"/>
  </medicationCodeableConcept>

  <whenHandedOver value="2008-08-31"/>

</MedicationDispense>

  </resource>
  <request>
    <method value="POST"/>
    <url value="MedicationDispense/290"/>
  </request>
</entry>
<entry>
  <resource>
    
    
<MedicationDispense>
  <id value="291"/>
  <!--  insert contents here  -->
   <text>
    <status value="generated"/>
    <div xmlns="http://www.w3.org/1999/xhtml">
      Dispensed 30 tablets = 30 day supply of Digoxin 0.25 MG Oral Tablet [Lanoxin]
    </div>
  </text>

  <status value="completed"/>

  <patient>
    <reference value="Patient/1768562"/>
  </patient>

  <authorizingPrescription>
    <reference value="MedicationOrder/201"/>
  </authorizingPrescription>

  <quantity>
      <value value="30"/>
      <unit value="tablets"/>
      <system value="http://unitsofmeasure.org"/>
      <code value="{tablets}"/>
  </quantity>

  <daysSupply>
      <value value="30" />
      <unit value="days" />
      <system value="http://unitsofmeasure.org" />
      <code value="d" />
  </daysSupply>

  <medicationCodeableConcept>
    <coding>
        <system value="http://www.nlm.nih.gov/research/umls/rxnorm"/>
        <code value="309889"/>
        <display value="Digoxin 0.25 MG Oral Tablet [Lanoxin]"/>
    </coding>
    <text value="Digoxin 0.25 MG Oral Tablet [Lanoxin]"/>
  </medicationCodeableConcept>

  <whenHandedOver value="2008-09-26"/>

</MedicationDispense>

  </resource>
  <request>
    <method value="POST"/>
    <url value="MedicationDispense/291"/>
  </request>
</entry>
<entry>
  <resource>
    
    
<MedicationDispense>
  <id value="289"/>
  <!--  insert contents here  -->
   <text>
    <status value="generated"/>
    <div xmlns="http://www.w3.org/1999/xhtml">
      Dispensed 30 tablets = 30 day supply of Digoxin 0.25 MG Oral Tablet [Lanoxin]
    </div>
  </text>

  <status value="completed"/>

  <patient>
    <reference value="Patient/1768562"/>
  </patient>

  <authorizingPrescription>
    <reference value="MedicationOrder/201"/>
  </authorizingPrescription>

  <quantity>
      <value value="30"/>
      <unit value="tablets"/>
      <system value="http://unitsofmeasure.org"/>
      <code value="{tablets}"/>
  </quantity>

  <daysSupply>
      <value value="30" />
      <unit value="days" />
      <system value="http://unitsofmeasure.org" />
      <code value="d" />
  </daysSupply>

  <medicationCodeableConcept>
    <coding>
        <system value="http://www.nlm.nih.gov/research/umls/rxnorm"/>
        <code value="309889"/>
        <display value="Digoxin 0.25 MG Oral Tablet [Lanoxin]"/>
    </coding>
    <text value="Digoxin 0.25 MG Oral Tablet [Lanoxin]"/>
  </medicationCodeableConcept>

  <whenHandedOver value="2008-07-30"/>

</MedicationDispense>

  </resource>
  <request>
    <method value="POST"/>
    <url value="MedicationDispense/289"/>
  </request>
</entry>
<entry>
  <resource>
    
    
<MedicationDispense>
  <id value="294"/>
  <!--  insert contents here  -->
   <text>
    <status value="generated"/>
    <div xmlns="http://www.w3.org/1999/xhtml">
      Dispensed 30 tablets = 30 day supply of Digoxin 0.25 MG Oral Tablet [Lanoxin]
    </div>
  </text>

  <status value="completed"/>

  <patient>
    <reference value="Patient/1768562"/>
  </patient>

  <authorizingPrescription>
    <reference value="MedicationOrder/201"/>
  </authorizingPrescription>

  <quantity>
      <value value="30"/>
      <unit value="tablets"/>
      <system value="http://unitsofmeasure.org"/>
      <code value="{tablets}"/>
  </quantity>

  <daysSupply>
      <value value="30" />
      <unit value="days" />
      <system value="http://unitsofmeasure.org" />
      <code value="d" />
  </daysSupply>

  <medicationCodeableConcept>
    <coding>
        <system value="http://www.nlm.nih.gov/research/umls/rxnorm"/>
        <code value="309889"/>
        <display value="Digoxin 0.25 MG Oral Tablet [Lanoxin]"/>
    </coding>
    <text value="Digoxin 0.25 MG Oral Tablet [Lanoxin]"/>
  </medicationCodeableConcept>

  <whenHandedOver value="2009-01-30"/>

</MedicationDispense>

  </resource>
  <request>
    <method value="POST"/>
    <url value="MedicationDispense/294"/>
  </request>
</entry>
<entry>
  <resource>
    
    
<MedicationDispense>
  <id value="300"/>
  <!--  insert contents here  -->
   <text>
    <status value="generated"/>
    <div xmlns="http://www.w3.org/1999/xhtml">
      Dispensed 30 tablets = 30 day supply of Digoxin 0.25 MG Oral Tablet [Lanoxin]
    </div>
  </text>

  <status value="completed"/>

  <patient>
    <reference value="Patient/1768562"/>
  </patient>

  <authorizingPrescription>
    <reference value="MedicationOrder/201"/>
  </authorizingPrescription>

  <quantity>
      <value value="30"/>
      <unit value="tablets"/>
      <system value="http://unitsofmeasure.org"/>
      <code value="{tablets}"/>
  </quantity>

  <daysSupply>
      <value value="30" />
      <unit value="days" />
      <system value="http://unitsofmeasure.org" />
      <code value="d" />
  </daysSupply>

  <medicationCodeableConcept>
    <coding>
        <system value="http://www.nlm.nih.gov/research/umls/rxnorm"/>
        <code value="309889"/>
        <display value="Digoxin 0.25 MG Oral Tablet [Lanoxin]"/>
    </coding>
    <text value="Digoxin 0.25 MG Oral Tablet [Lanoxin]"/>
  </medicationCodeableConcept>

  <whenHandedOver value="2009-08-04"/>

</MedicationDispense>

  </resource>
  <request>
    <method value="POST"/>
    <url value="MedicationDispense/300"/>
  </request>
</entry>
<entry>
  <resource>
    
    
<MedicationDispense>
  <id value="293"/>
  <!--  insert contents here  -->
   <text>
    <status value="generated"/>
    <div xmlns="http://www.w3.org/1999/xhtml">
      Dispensed 30 tablets = 30 day supply of Digoxin 0.25 MG Oral Tablet [Lanoxin]
    </div>
  </text>

  <status value="completed"/>

  <patient>
    <reference value="Patient/1768562"/>
  </patient>

  <authorizingPrescription>
    <reference value="MedicationOrder/201"/>
  </authorizingPrescription>

  <quantity>
      <value value="30"/>
      <unit value="tablets"/>
      <system value="http://unitsofmeasure.org"/>
      <code value="{tablets}"/>
  </quantity>

  <daysSupply>
      <value value="30" />
      <unit value="days" />
      <system value="http://unitsofmeasure.org" />
      <code value="d" />
  </daysSupply>

  <medicationCodeableConcept>
    <coding>
        <system value="http://www.nlm.nih.gov/research/umls/rxnorm"/>
        <code value="309889"/>
        <display value="Digoxin 0.25 MG Oral Tablet [Lanoxin]"/>
    </coding>
    <text value="Digoxin 0.25 MG Oral Tablet [Lanoxin]"/>
  </medicationCodeableConcept>

  <whenHandedOver value="2008-11-25"/>

</MedicationDispense>

  </resource>
  <request>
    <method value="POST"/>
    <url value="MedicationDispense/293"/>
  </request>
</entry>
<entry>
  <resource>
    
    
<MedicationDispense>
  <id value="297"/>
  <!--  insert contents here  -->
   <text>
    <status value="generated"/>
    <div xmlns="http://www.w3.org/1999/xhtml">
      Dispensed 30 tablets = 30 day supply of Digoxin 0.25 MG Oral Tablet [Lanoxin]
    </div>
  </text>

  <status value="completed"/>

  <patient>
    <reference value="Patient/1768562"/>
  </patient>

  <authorizingPrescription>
    <reference value="MedicationOrder/201"/>
  </authorizingPrescription>

  <quantity>
      <value value="30"/>
      <unit value="tablets"/>
      <system value="http://unitsofmeasure.org"/>
      <code value="{tablets}"/>
  </quantity>

  <daysSupply>
      <value value="30" />
      <unit value="days" />
      <system value="http://unitsofmeasure.org" />
      <code value="d" />
  </daysSupply>

  <medicationCodeableConcept>
    <coding>
        <system value="http://www.nlm.nih.gov/research/umls/rxnorm"/>
        <code value="309889"/>
        <display value="Digoxin 0.25 MG Oral Tablet [Lanoxin]"/>
    </coding>
    <text value="Digoxin 0.25 MG Oral Tablet [Lanoxin]"/>
  </medicationCodeableConcept>

  <whenHandedOver value="2009-04-30"/>

</MedicationDispense>

  </resource>
  <request>
    <method value="POST"/>
    <url value="MedicationDispense/297"/>
  </request>
</entry>
<entry>
  <resource>
    
    
<MedicationDispense>
  <id value="296"/>
  <!--  insert contents here  -->
   <text>
    <status value="generated"/>
    <div xmlns="http://www.w3.org/1999/xhtml">
      Dispensed 30 tablets = 30 day supply of Digoxin 0.25 MG Oral Tablet [Lanoxin]
    </div>
  </text>

  <status value="completed"/>

  <patient>
    <reference value="Patient/1768562"/>
  </patient>

  <authorizingPrescription>
    <reference value="MedicationOrder/201"/>
  </authorizingPrescription>

  <quantity>
      <value value="30"/>
      <unit value="tablets"/>
      <system value="http://unitsofmeasure.org"/>
      <code value="{tablets}"/>
  </quantity>

  <daysSupply>
      <value value="30" />
      <unit value="days" />
      <system value="http://unitsofmeasure.org" />
      <code value="d" />
  </daysSupply>

  <medicationCodeableConcept>
    <coding>
        <system value="http://www.nlm.nih.gov/research/umls/rxnorm"/>
        <code value="309889"/>
        <display value="Digoxin 0.25 MG Oral Tablet [Lanoxin]"/>
    </coding>
    <text value="Digoxin 0.25 MG Oral Tablet [Lanoxin]"/>
  </medicationCodeableConcept>

  <whenHandedOver value="2009-04-02"/>

</MedicationDispense>

  </resource>
  <request>
    <method value="POST"/>
    <url value="MedicationDispense/296"/>
  </request>
</entry>
<entry>
  <resource>
    
    
<MedicationDispense>
  <id value="299"/>
  <!--  insert contents here  -->
   <text>
    <status value="generated"/>
    <div xmlns="http://www.w3.org/1999/xhtml">
      Dispensed 30 tablets = 30 day supply of Digoxin 0.25 MG Oral Tablet [Lanoxin]
    </div>
  </text>

  <status value="completed"/>

  <patient>
    <reference value="Patient/1768562"/>
  </patient>

  <authorizingPrescription>
    <reference value="MedicationOrder/201"/>
  </authorizingPrescription>

  <quantity>
      <value value="30"/>
      <unit value="tablets"/>
      <system value="http://unitsofmeasure.org"/>
      <code value="{tablets}"/>
  </quantity>

  <daysSupply>
      <value value="30" />
      <unit value="days" />
      <system value="http://unitsofmeasure.org" />
      <code value="d" />
  </daysSupply>

  <medicationCodeableConcept>
    <coding>
        <system value="http://www.nlm.nih.gov/research/umls/rxnorm"/>
        <code value="309889"/>
        <display value="Digoxin 0.25 MG Oral Tablet [Lanoxin]"/>
    </coding>
    <text value="Digoxin 0.25 MG Oral Tablet [Lanoxin]"/>
  </medicationCodeableConcept>

  <whenHandedOver value="2009-07-02"/>

</MedicationDispense>

  </resource>
  <request>
    <method value="POST"/>
    <url value="MedicationDispense/299"/>
  </request>
</entry>
<entry>
  <resource>
    
    
<MedicationDispense>
  <id value="292"/>
  <!--  insert contents here  -->
   <text>
    <status value="generated"/>
    <div xmlns="http://www.w3.org/1999/xhtml">
      Dispensed 30 tablets = 30 day supply of Digoxin 0.25 MG Oral Tablet [Lanoxin]
    </div>
  </text>

  <status value="completed"/>

  <patient>
    <reference value="Patient/1768562"/>
  </patient>

  <authorizingPrescription>
    <reference value="MedicationOrder/201"/>
  </authorizingPrescription>

  <quantity>
      <value value="30"/>
      <unit value="tablets"/>
      <system value="http://unitsofmeasure.org"/>
      <code value="{tablets}"/>
  </quantity>

  <daysSupply>
      <value value="30" />
      <unit value="days" />
      <system value="http://unitsofmeasure.org" />
      <code value="d" />
  </daysSupply>

  <medicationCodeableConcept>
    <coding>
        <system value="http://www.nlm.nih.gov/research/umls/rxnorm"/>
        <code value="309889"/>
        <display value="Digoxin 0.25 MG Oral Tablet [Lanoxin]"/>
    </coding>
    <text value="Digoxin 0.25 MG Oral Tablet [Lanoxin]"/>
  </medicationCodeableConcept>

  <whenHandedOver value="2008-10-30"/>

</MedicationDispense>

  </resource>
  <request>
    <method value="POST"/>
    <url value="MedicationDispense/292"/>
  </request>
</entry>
<entry>
  <resource>
    
    
<MedicationDispense>
  <id value="301"/>
  <!--  insert contents here  -->
   <text>
    <status value="generated"/>
    <div xmlns="http://www.w3.org/1999/xhtml">
      Dispensed 30 tablets = 30 day supply of Digoxin 0.25 MG Oral Tablet [Lanoxin]
    </div>
  </text>

  <status value="completed"/>

  <patient>
    <reference value="Patient/1768562"/>
  </patient>

  <authorizingPrescription>
    <reference value="MedicationOrder/201"/>
  </authorizingPrescription>

  <quantity>
      <value value="30"/>
      <unit value="tablets"/>
      <system value="http://unitsofmeasure.org"/>
      <code value="{tablets}"/>
  </quantity>

  <daysSupply>
      <value value="30" />
      <unit value="days" />
      <system value="http://unitsofmeasure.org" />
      <code value="d" />
  </daysSupply>

  <medicationCodeableConcept>
    <coding>
        <system value="http://www.nlm.nih.gov/research/umls/rxnorm"/>
        <code value="309889"/>
        <display value="Digoxin 0.25 MG Oral Tablet [Lanoxin]"/>
    </coding>
    <text value="Digoxin 0.25 MG Oral Tablet [Lanoxin]"/>
  </medicationCodeableConcept>

  <whenHandedOver value="2009-08-31"/>

</MedicationDispense>

  </resource>
  <request>
    <method value="POST"/>
    <url value="MedicationDispense/301"/>
  </request>
</entry>
<entry>
  <resource>
    
    
<MedicationOrder>
  <id value="202"/>
  <text>
    <status value="generated"/>
    <div xmlns="http://www.w3.org/1999/xhtml">
      Cyclobenzaprine hydrochloride 10 MG Oral Tablet (rxnorm: 828348)
    </div>
  </text>

  <status value="active" />
  <patient>
    <reference value="Patient/1768562"/>
  </patient>

  <medicationCodeableConcept>
    <coding>
        <system value="http://www.nlm.nih.gov/research/umls/rxnorm"/>
        <code value="828348"/>
        <display value="Cyclobenzaprine hydrochloride 10 MG Oral Tablet"/>
    </coding>
    <text value="Cyclobenzaprine hydrochloride 10 MG Oral Tablet"/>
  </medicationCodeableConcept>

  <dosageInstruction>
    <timing>
      <repeat>
        <boundsPeriod>
          <start value="2008-07-30"/>
        </boundsPeriod>
        <frequency value="3"/>
        <period value="1"/>
        <periodUnits value="d"/>
      </repeat>
      
    </timing>
    <doseQuantity>
      <value value="1"/>
      <unit value="{tablet}"/>
      <system value="http://unitsofmeasure.org"/>
      <code value="{tablet}"/>
    </doseQuantity>
    
    <asNeededBoolean value="true"/>
    
    <text value="1 tid prn"/>
  </dosageInstruction>
  <dispenseRequest>
     <numberOfRepeatsAllowed value="1"/>
     
     <quantity>
        <value value="30"/>
        <unit value="{tablet}"/>
        <system value="http://unitsofmeasure.org"/>
        <code value="{tablet}"/>
     </quantity>
     
     <expectedSupplyDuration>
        <value value="30"/>
        <unit value="days"/>
        <system value="http://unitsofmeasure.org"/>
        <code value="d"/>
     </expectedSupplyDuration>
     
  </dispenseRequest>
  
</MedicationOrder>

  </resource>
  <request>
    <method value="POST"/>
    <url value="MedicationOrder/202"/>
  </request>
</entry>
<entry>
  <resource>
    
    
<MedicationDispense>
  <id value="271"/>
  <!--  insert contents here  -->
   <text>
    <status value="generated"/>
    <div xmlns="http://www.w3.org/1999/xhtml">
      Dispensed 30 tablets = 30 day supply of Cyclobenzaprine hydrochloride 10 MG Oral Tablet
    </div>
  </text>

  <status value="completed"/>

  <patient>
    <reference value="Patient/1768562"/>
  </patient>

  <authorizingPrescription>
    <reference value="MedicationOrder/202"/>
  </authorizingPrescription>

  <quantity>
      <value value="30"/>
      <unit value="tablets"/>
      <system value="http://unitsofmeasure.org"/>
      <code value="{tablets}"/>
  </quantity>

  <daysSupply>
      <value value="30" />
      <unit value="days" />
      <system value="http://unitsofmeasure.org" />
      <code value="d" />
  </daysSupply>

  <medicationCodeableConcept>
    <coding>
        <system value="http://www.nlm.nih.gov/research/umls/rxnorm"/>
        <code value="828348"/>
        <display value="Cyclobenzaprine hydrochloride 10 MG Oral Tablet"/>
    </coding>
    <text value="Cyclobenzaprine hydrochloride 10 MG Oral Tablet"/>
  </medicationCodeableConcept>

  <whenHandedOver value="2008-12-06"/>

</MedicationDispense>

  </resource>
  <request>
    <method value="POST"/>
    <url value="MedicationDispense/271"/>
  </request>
</entry>
<entry>
  <resource>
    
    
<MedicationDispense>
  <id value="267"/>
  <!--  insert contents here  -->
   <text>
    <status value="generated"/>
    <div xmlns="http://www.w3.org/1999/xhtml">
      Dispensed 30 tablets = 30 day supply of Cyclobenzaprine hydrochloride 10 MG Oral Tablet
    </div>
  </text>

  <status value="completed"/>

  <patient>
    <reference value="Patient/1768562"/>
  </patient>

  <authorizingPrescription>
    <reference value="MedicationOrder/202"/>
  </authorizingPrescription>

  <quantity>
      <value value="30"/>
      <unit value="tablets"/>
      <system value="http://unitsofmeasure.org"/>
      <code value="{tablets}"/>
  </quantity>

  <daysSupply>
      <value value="30" />
      <unit value="days" />
      <system value="http://unitsofmeasure.org" />
      <code value="d" />
  </daysSupply>

  <medicationCodeableConcept>
    <coding>
        <system value="http://www.nlm.nih.gov/research/umls/rxnorm"/>
        <code value="828348"/>
        <display value="Cyclobenzaprine hydrochloride 10 MG Oral Tablet"/>
    </coding>
    <text value="Cyclobenzaprine hydrochloride 10 MG Oral Tablet"/>
  </medicationCodeableConcept>

  <whenHandedOver value="2008-07-30"/>

</MedicationDispense>

  </resource>
  <request>
    <method value="POST"/>
    <url value="MedicationDispense/267"/>
  </request>
</entry>
<entry>
  <resource>
    
    
<MedicationDispense>
  <id value="270"/>
  <!--  insert contents here  -->
   <text>
    <status value="generated"/>
    <div xmlns="http://www.w3.org/1999/xhtml">
      Dispensed 30 tablets = 30 day supply of Cyclobenzaprine hydrochloride 10 MG Oral Tablet
    </div>
  </text>

  <status value="completed"/>

  <patient>
    <reference value="Patient/1768562"/>
  </patient>

  <authorizingPrescription>
    <reference value="MedicationOrder/202"/>
  </authorizingPrescription>

  <quantity>
      <value value="30"/>
      <unit value="tablets"/>
      <system value="http://unitsofmeasure.org"/>
      <code value="{tablets}"/>
  </quantity>

  <daysSupply>
      <value value="30" />
      <unit value="days" />
      <system value="http://unitsofmeasure.org" />
      <code value="d" />
  </daysSupply>

  <medicationCodeableConcept>
    <coding>
        <system value="http://www.nlm.nih.gov/research/umls/rxnorm"/>
        <code value="828348"/>
        <display value="Cyclobenzaprine hydrochloride 10 MG Oral Tablet"/>
    </coding>
    <text value="Cyclobenzaprine hydrochloride 10 MG Oral Tablet"/>
  </medicationCodeableConcept>

  <whenHandedOver value="2008-11-08"/>

</MedicationDispense>

  </resource>
  <request>
    <method value="POST"/>
    <url value="MedicationDispense/270"/>
  </request>
</entry>
<entry>
  <resource>
    
    
<MedicationDispense>
  <id value="268"/>
  <!--  insert contents here  -->
   <text>
    <status value="generated"/>
    <div xmlns="http://www.w3.org/1999/xhtml">
      Dispensed 30 tablets = 30 day supply of Cyclobenzaprine hydrochloride 10 MG Oral Tablet
    </div>
  </text>

  <status value="completed"/>

  <patient>
    <reference value="Patient/1768562"/>
  </patient>

  <authorizingPrescription>
    <reference value="MedicationOrder/202"/>
  </authorizingPrescription>

  <quantity>
      <value value="30"/>
      <unit value="tablets"/>
      <system value="http://unitsofmeasure.org"/>
      <code value="{tablets}"/>
  </quantity>

  <daysSupply>
      <value value="30" />
      <unit value="days" />
      <system value="http://unitsofmeasure.org" />
      <code value="d" />
  </daysSupply>

  <medicationCodeableConcept>
    <coding>
        <system value="http://www.nlm.nih.gov/research/umls/rxnorm"/>
        <code value="828348"/>
        <display value="Cyclobenzaprine hydrochloride 10 MG Oral Tablet"/>
    </coding>
    <text value="Cyclobenzaprine hydrochloride 10 MG Oral Tablet"/>
  </medicationCodeableConcept>

  <whenHandedOver value="2008-08-31"/>

</MedicationDispense>

  </resource>
  <request>
    <method value="POST"/>
    <url value="MedicationDispense/268"/>
  </request>
</entry>
<entry>
  <resource>
    
    
<MedicationDispense>
  <id value="269"/>
  <!--  insert contents here  -->
   <text>
    <status value="generated"/>
    <div xmlns="http://www.w3.org/1999/xhtml">
      Dispensed 30 tablets = 30 day supply of Cyclobenzaprine hydrochloride 10 MG Oral Tablet
    </div>
  </text>

  <status value="completed"/>

  <patient>
    <reference value="Patient/1768562"/>
  </patient>

  <authorizingPrescription>
    <reference value="MedicationOrder/202"/>
  </authorizingPrescription>

  <quantity>
      <value value="30"/>
      <unit value="tablets"/>
      <system value="http://unitsofmeasure.org"/>
      <code value="{tablets}"/>
  </quantity>

  <daysSupply>
      <value value="30" />
      <unit value="days" />
      <system value="http://unitsofmeasure.org" />
      <code value="d" />
  </daysSupply>

  <medicationCodeableConcept>
    <coding>
        <system value="http://www.nlm.nih.gov/research/umls/rxnorm"/>
        <code value="828348"/>
        <display value="Cyclobenzaprine hydrochloride 10 MG Oral Tablet"/>
    </coding>
    <text value="Cyclobenzaprine hydrochloride 10 MG Oral Tablet"/>
  </medicationCodeableConcept>

  <whenHandedOver value="2008-10-05"/>

</MedicationDispense>

  </resource>
  <request>
    <method value="POST"/>
    <url value="MedicationDispense/269"/>
  </request>
</entry>
<entry>
  <resource>
    
    
<MedicationOrder>
  <id value="203"/>
  <text>
    <status value="generated"/>
    <div xmlns="http://www.w3.org/1999/xhtml">
      Warfarin 5 MG Oral Tablet [Coumadin] (rxnorm: 855334)
    </div>
  </text>

  <status value="active" />
  <patient>
    <reference value="Patient/1768562"/>
  </patient>

  <medicationCodeableConcept>
    <coding>
        <system value="http://www.nlm.nih.gov/research/umls/rxnorm"/>
        <code value="855334"/>
        <display value="Warfarin 5 MG Oral Tablet [Coumadin]"/>
    </coding>
    <text value="Warfarin 5 MG Oral Tablet [Coumadin]"/>
  </medicationCodeableConcept>

  <dosageInstruction>
    <timing>
      <repeat>
        <boundsPeriod>
          <start value="2008-07-30"/>
        </boundsPeriod>
        <frequency value="1"/>
        <period value="1"/>
        <periodUnits value="d"/>
      </repeat>
      
    </timing>
    <doseQuantity>
      <value value="1"/>
      <unit value="{tablet}"/>
      <system value="http://unitsofmeasure.org"/>
      <code value="{tablet}"/>
    </doseQuantity>
    
    <text value="1 daily"/>
  </dosageInstruction>
  <dispenseRequest>
     <numberOfRepeatsAllowed value="1"/>
     
     <quantity>
        <value value="90"/>
        <unit value="{tablet}"/>
        <system value="http://unitsofmeasure.org"/>
        <code value="{tablet}"/>
     </quantity>
     
     <expectedSupplyDuration>
        <value value="90"/>
        <unit value="days"/>
        <system value="http://unitsofmeasure.org"/>
        <code value="d"/>
     </expectedSupplyDuration>
     
  </dispenseRequest>
  
</MedicationOrder>

  </resource>
  <request>
    <method value="POST"/>
    <url value="MedicationOrder/203"/>
  </request>
</entry>
<entry>
  <resource>
    
    
<MedicationDispense>
  <id value="285"/>
  <!--  insert contents here  -->
   <text>
    <status value="generated"/>
    <div xmlns="http://www.w3.org/1999/xhtml">
      Dispensed 30 tablets = 30 day supply of Warfarin 5 MG Oral Tablet [Coumadin]
    </div>
  </text>

  <status value="completed"/>

  <patient>
    <reference value="Patient/1768562"/>
  </patient>

  <authorizingPrescription>
    <reference value="MedicationOrder/203"/>
  </authorizingPrescription>

  <quantity>
      <value value="30"/>
      <unit value="tablets"/>
      <system value="http://unitsofmeasure.org"/>
      <code value="{tablets}"/>
  </quantity>

  <daysSupply>
      <value value="30" />
      <unit value="days" />
      <system value="http://unitsofmeasure.org" />
      <code value="d" />
  </daysSupply>

  <medicationCodeableConcept>
    <coding>
        <system value="http://www.nlm.nih.gov/research/umls/rxnorm"/>
        <code value="855334"/>
        <display value="Warfarin 5 MG Oral Tablet [Coumadin]"/>
    </coding>
    <text value="Warfarin 5 MG Oral Tablet [Coumadin]"/>
  </medicationCodeableConcept>

  <whenHandedOver value="2009-05-12"/>

</MedicationDispense>

  </resource>
  <request>
    <method value="POST"/>
    <url value="MedicationDispense/285"/>
  </request>
</entry>
<entry>
  <resource>
    
    
<MedicationDispense>
  <id value="288"/>
  <!--  insert contents here  -->
   <text>
    <status value="generated"/>
    <div xmlns="http://www.w3.org/1999/xhtml">
      Dispensed 30 tablets = 30 day supply of Warfarin 5 MG Oral Tablet [Coumadin]
    </div>
  </text>

  <status value="completed"/>

  <patient>
    <reference value="Patient/1768562"/>
  </patient>

  <authorizingPrescription>
    <reference value="MedicationOrder/203"/>
  </authorizingPrescription>

  <quantity>
      <value value="30"/>
      <unit value="tablets"/>
      <system value="http://unitsofmeasure.org"/>
      <code value="{tablets}"/>
  </quantity>

  <daysSupply>
      <value value="30" />
      <unit value="days" />
      <system value="http://unitsofmeasure.org" />
      <code value="d" />
  </daysSupply>

  <medicationCodeableConcept>
    <coding>
        <system value="http://www.nlm.nih.gov/research/umls/rxnorm"/>
        <code value="855334"/>
        <display value="Warfarin 5 MG Oral Tablet [Coumadin]"/>
    </coding>
    <text value="Warfarin 5 MG Oral Tablet [Coumadin]"/>
  </medicationCodeableConcept>

  <whenHandedOver value="2009-08-12"/>

</MedicationDispense>

  </resource>
  <request>
    <method value="POST"/>
    <url value="MedicationDispense/288"/>
  </request>
</entry>
<entry>
  <resource>
    
    
<MedicationDispense>
  <id value="286"/>
  <!--  insert contents here  -->
   <text>
    <status value="generated"/>
    <div xmlns="http://www.w3.org/1999/xhtml">
      Dispensed 30 tablets = 30 day supply of Warfarin 5 MG Oral Tablet [Coumadin]
    </div>
  </text>

  <status value="completed"/>

  <patient>
    <reference value="Patient/1768562"/>
  </patient>

  <authorizingPrescription>
    <reference value="MedicationOrder/203"/>
  </authorizingPrescription>

  <quantity>
      <value value="30"/>
      <unit value="tablets"/>
      <system value="http://unitsofmeasure.org"/>
      <code value="{tablets}"/>
  </quantity>

  <daysSupply>
      <value value="30" />
      <unit value="days" />
      <system value="http://unitsofmeasure.org" />
      <code value="d" />
  </daysSupply>

  <medicationCodeableConcept>
    <coding>
        <system value="http://www.nlm.nih.gov/research/umls/rxnorm"/>
        <code value="855334"/>
        <display value="Warfarin 5 MG Oral Tablet [Coumadin]"/>
    </coding>
    <text value="Warfarin 5 MG Oral Tablet [Coumadin]"/>
  </medicationCodeableConcept>

  <whenHandedOver value="2009-06-13"/>

</MedicationDispense>

  </resource>
  <request>
    <method value="POST"/>
    <url value="MedicationDispense/286"/>
  </request>
</entry>
<entry>
  <resource>
    
    
<MedicationDispense>
  <id value="287"/>
  <!--  insert contents here  -->
   <text>
    <status value="generated"/>
    <div xmlns="http://www.w3.org/1999/xhtml">
      Dispensed 30 tablets = 30 day supply of Warfarin 5 MG Oral Tablet [Coumadin]
    </div>
  </text>

  <status value="completed"/>

  <patient>
    <reference value="Patient/1768562"/>
  </patient>

  <authorizingPrescription>
    <reference value="MedicationOrder/203"/>
  </authorizingPrescription>

  <quantity>
      <value value="30"/>
      <unit value="tablets"/>
      <system value="http://unitsofmeasure.org"/>
      <code value="{tablets}"/>
  </quantity>

  <daysSupply>
      <value value="30" />
      <unit value="days" />
      <system value="http://unitsofmeasure.org" />
      <code value="d" />
  </daysSupply>

  <medicationCodeableConcept>
    <coding>
        <system value="http://www.nlm.nih.gov/research/umls/rxnorm"/>
        <code value="855334"/>
        <display value="Warfarin 5 MG Oral Tablet [Coumadin]"/>
    </coding>
    <text value="Warfarin 5 MG Oral Tablet [Coumadin]"/>
  </medicationCodeableConcept>

  <whenHandedOver value="2009-07-15"/>

</MedicationDispense>

  </resource>
  <request>
    <method value="POST"/>
    <url value="MedicationDispense/287"/>
  </request>
</entry>
<entry>
  <resource>
    
    
<MedicationDispense>
  <id value="283"/>
  <!--  insert contents here  -->
   <text>
    <status value="generated"/>
    <div xmlns="http://www.w3.org/1999/xhtml">
      Dispensed 30 tablets = 30 day supply of Warfarin 5 MG Oral Tablet [Coumadin]
    </div>
  </text>

  <status value="completed"/>

  <patient>
    <reference value="Patient/1768562"/>
  </patient>

  <authorizingPrescription>
    <reference value="MedicationOrder/203"/>
  </authorizingPrescription>

  <quantity>
      <value value="30"/>
      <unit value="tablets"/>
      <system value="http://unitsofmeasure.org"/>
      <code value="{tablets}"/>
  </quantity>

  <daysSupply>
      <value value="30" />
      <unit value="days" />
      <system value="http://unitsofmeasure.org" />
      <code value="d" />
  </daysSupply>

  <medicationCodeableConcept>
    <coding>
        <system value="http://www.nlm.nih.gov/research/umls/rxnorm"/>
        <code value="855334"/>
        <display value="Warfarin 5 MG Oral Tablet [Coumadin]"/>
    </coding>
    <text value="Warfarin 5 MG Oral Tablet [Coumadin]"/>
  </medicationCodeableConcept>

  <whenHandedOver value="2009-03-15"/>

</MedicationDispense>

  </resource>
  <request>
    <method value="POST"/>
    <url value="MedicationDispense/283"/>
  </request>
</entry>
<entry>
  <resource>
    
    
<MedicationDispense>
  <id value="281"/>
  <!--  insert contents here  -->
   <text>
    <status value="generated"/>
    <div xmlns="http://www.w3.org/1999/xhtml">
      Dispensed 90 tablets = 90 day supply of Warfarin 5 MG Oral Tablet [Coumadin]
    </div>
  </text>

  <status value="completed"/>

  <patient>
    <reference value="Patient/1768562"/>
  </patient>

  <authorizingPrescription>
    <reference value="MedicationOrder/203"/>
  </authorizingPrescription>

  <quantity>
      <value value="90"/>
      <unit value="tablets"/>
      <system value="http://unitsofmeasure.org"/>
      <code value="{tablets}"/>
  </quantity>

  <daysSupply>
      <value value="90" />
      <unit value="days" />
      <system value="http://unitsofmeasure.org" />
      <code value="d" />
  </daysSupply>

  <medicationCodeableConcept>
    <coding>
        <system value="http://www.nlm.nih.gov/research/umls/rxnorm"/>
        <code value="855334"/>
        <display value="Warfarin 5 MG Oral Tablet [Coumadin]"/>
    </coding>
    <text value="Warfarin 5 MG Oral Tablet [Coumadin]"/>
  </medicationCodeableConcept>

  <whenHandedOver value="2008-07-30"/>

</MedicationDispense>

  </resource>
  <request>
    <method value="POST"/>
    <url value="MedicationDispense/281"/>
  </request>
</entry>
<entry>
  <resource>
    
    
<MedicationDispense>
  <id value="284"/>
  <!--  insert contents here  -->
   <text>
    <status value="generated"/>
    <div xmlns="http://www.w3.org/1999/xhtml">
      Dispensed 30 tablets = 30 day supply of Warfarin 5 MG Oral Tablet [Coumadin]
    </div>
  </text>

  <status value="completed"/>

  <patient>
    <reference value="Patient/1768562"/>
  </patient>

  <authorizingPrescription>
    <reference value="MedicationOrder/203"/>
  </authorizingPrescription>

  <quantity>
      <value value="30"/>
      <unit value="tablets"/>
      <system value="http://unitsofmeasure.org"/>
      <code value="{tablets}"/>
  </quantity>

  <daysSupply>
      <value value="30" />
      <unit value="days" />
      <system value="http://unitsofmeasure.org" />
      <code value="d" />
  </daysSupply>

  <medicationCodeableConcept>
    <coding>
        <system value="http://www.nlm.nih.gov/research/umls/rxnorm"/>
        <code value="855334"/>
        <display value="Warfarin 5 MG Oral Tablet [Coumadin]"/>
    </coding>
    <text value="Warfarin 5 MG Oral Tablet [Coumadin]"/>
  </medicationCodeableConcept>

  <whenHandedOver value="2009-04-11"/>

</MedicationDispense>

  </resource>
  <request>
    <method value="POST"/>
    <url value="MedicationDispense/284"/>
  </request>
</entry>
<entry>
  <resource>
    
    
<MedicationDispense>
  <id value="282"/>
  <!--  insert contents here  -->
   <text>
    <status value="generated"/>
    <div xmlns="http://www.w3.org/1999/xhtml">
      Dispensed 90 tablets = 90 day supply of Warfarin 5 MG Oral Tablet [Coumadin]
    </div>
  </text>

  <status value="completed"/>

  <patient>
    <reference value="Patient/1768562"/>
  </patient>

  <authorizingPrescription>
    <reference value="MedicationOrder/203"/>
  </authorizingPrescription>

  <quantity>
      <value value="90"/>
      <unit value="tablets"/>
      <system value="http://unitsofmeasure.org"/>
      <code value="{tablets}"/>
  </quantity>

  <daysSupply>
      <value value="90" />
      <unit value="days" />
      <system value="http://unitsofmeasure.org" />
      <code value="d" />
  </daysSupply>

  <medicationCodeableConcept>
    <coding>
        <system value="http://www.nlm.nih.gov/research/umls/rxnorm"/>
        <code value="855334"/>
        <display value="Warfarin 5 MG Oral Tablet [Coumadin]"/>
    </coding>
    <text value="Warfarin 5 MG Oral Tablet [Coumadin]"/>
  </medicationCodeableConcept>

  <whenHandedOver value="2008-11-06"/>

</MedicationDispense>

  </resource>
  <request>
    <method value="POST"/>
    <url value="MedicationDispense/282"/>
  </request>
</entry>
<entry>
  <resource>
    
    
<MedicationOrder>
  <id value="204"/>
  <text>
    <status value="generated"/>
    <div xmlns="http://www.w3.org/1999/xhtml">
      celecoxib 200 MG Oral Capsule [Celebrex] (rxnorm: 213469)
    </div>
  </text>

  <status value="active" />
  <patient>
    <reference value="Patient/1768562"/>
  </patient>

  <medicationCodeableConcept>
    <coding>
        <system value="http://www.nlm.nih.gov/research/umls/rxnorm"/>
        <code value="213469"/>
        <display value="celecoxib 200 MG Oral Capsule [Celebrex]"/>
    </coding>
    <text value="celecoxib 200 MG Oral Capsule [Celebrex]"/>
  </medicationCodeableConcept>

  <dosageInstruction>
    <timing>
      <repeat>
        <boundsPeriod>
          <start value="2008-08-22"/>
        </boundsPeriod>
        <frequency value="1"/>
        <period value="1"/>
        <periodUnits value="d"/>
      </repeat>
      
    </timing>
    <doseQuantity>
      <value value="1"/>
      <unit value="{tablet}"/>
      <system value="http://unitsofmeasure.org"/>
      <code value="{tablet}"/>
    </doseQuantity>
    
    <text value="1 daily"/>
  </dosageInstruction>
  <dispenseRequest>
     <numberOfRepeatsAllowed value="1"/>
     
     <quantity>
        <value value="30"/>
        <unit value="{tablet}"/>
        <system value="http://unitsofmeasure.org"/>
        <code value="{tablet}"/>
     </quantity>
     
     <expectedSupplyDuration>
        <value value="30"/>
        <unit value="days"/>
        <system value="http://unitsofmeasure.org"/>
        <code value="d"/>
     </expectedSupplyDuration>
     
  </dispenseRequest>
  
</MedicationOrder>

  </resource>
  <request>
    <method value="POST"/>
    <url value="MedicationOrder/204"/>
  </request>
</entry>
<entry>
  <resource>
    
    
<MedicationDispense>
  <id value="279"/>
  <!--  insert contents here  -->
   <text>
    <status value="generated"/>
    <div xmlns="http://www.w3.org/1999/xhtml">
      Dispensed 30 tablets = 30 day supply of celecoxib 200 MG Oral Capsule [Celebrex]
    </div>
  </text>

  <status value="completed"/>

  <patient>
    <reference value="Patient/1768562"/>
  </patient>

  <authorizingPrescription>
    <reference value="MedicationOrder/204"/>
  </authorizingPrescription>

  <quantity>
      <value value="30"/>
      <unit value="tablets"/>
      <system value="http://unitsofmeasure.org"/>
      <code value="{tablets}"/>
  </quantity>

  <daysSupply>
      <value value="30" />
      <unit value="days" />
      <system value="http://unitsofmeasure.org" />
      <code value="d" />
  </daysSupply>

  <medicationCodeableConcept>
    <coding>
        <system value="http://www.nlm.nih.gov/research/umls/rxnorm"/>
        <code value="213469"/>
        <display value="celecoxib 200 MG Oral Capsule [Celebrex]"/>
    </coding>
    <text value="celecoxib 200 MG Oral Capsule [Celebrex]"/>
  </medicationCodeableConcept>

  <whenHandedOver value="2008-12-06"/>

</MedicationDispense>

  </resource>
  <request>
    <method value="POST"/>
    <url value="MedicationDispense/279"/>
  </request>
</entry>
<entry>
  <resource>
    
    
<MedicationDispense>
  <id value="277"/>
  <!--  insert contents here  -->
   <text>
    <status value="generated"/>
    <div xmlns="http://www.w3.org/1999/xhtml">
      Dispensed 30 tablets = 30 day supply of celecoxib 200 MG Oral Capsule [Celebrex]
    </div>
  </text>

  <status value="completed"/>

  <patient>
    <reference value="Patient/1768562"/>
  </patient>

  <authorizingPrescription>
    <reference value="MedicationOrder/204"/>
  </authorizingPrescription>

  <quantity>
      <value value="30"/>
      <unit value="tablets"/>
      <system value="http://unitsofmeasure.org"/>
      <code value="{tablets}"/>
  </quantity>

  <daysSupply>
      <value value="30" />
      <unit value="days" />
      <system value="http://unitsofmeasure.org" />
      <code value="d" />
  </daysSupply>

  <medicationCodeableConcept>
    <coding>
        <system value="http://www.nlm.nih.gov/research/umls/rxnorm"/>
        <code value="213469"/>
        <display value="celecoxib 200 MG Oral Capsule [Celebrex]"/>
    </coding>
    <text value="celecoxib 200 MG Oral Capsule [Celebrex]"/>
  </medicationCodeableConcept>

  <whenHandedOver value="2008-09-22"/>

</MedicationDispense>

  </resource>
  <request>
    <method value="POST"/>
    <url value="MedicationDispense/277"/>
  </request>
</entry>
<entry>
  <resource>
    
    
<MedicationDispense>
  <id value="276"/>
  <!--  insert contents here  -->
   <text>
    <status value="generated"/>
    <div xmlns="http://www.w3.org/1999/xhtml">
      Dispensed 30 tablets = 30 day supply of celecoxib 200 MG Oral Capsule [Celebrex]
    </div>
  </text>

  <status value="completed"/>

  <patient>
    <reference value="Patient/1768562"/>
  </patient>

  <authorizingPrescription>
    <reference value="MedicationOrder/204"/>
  </authorizingPrescription>

  <quantity>
      <value value="30"/>
      <unit value="tablets"/>
      <system value="http://unitsofmeasure.org"/>
      <code value="{tablets}"/>
  </quantity>

  <daysSupply>
      <value value="30" />
      <unit value="days" />
      <system value="http://unitsofmeasure.org" />
      <code value="d" />
  </daysSupply>

  <medicationCodeableConcept>
    <coding>
        <system value="http://www.nlm.nih.gov/research/umls/rxnorm"/>
        <code value="213469"/>
        <display value="celecoxib 200 MG Oral Capsule [Celebrex]"/>
    </coding>
    <text value="celecoxib 200 MG Oral Capsule [Celebrex]"/>
  </medicationCodeableConcept>

  <whenHandedOver value="2008-08-22"/>

</MedicationDispense>

  </resource>
  <request>
    <method value="POST"/>
    <url value="MedicationDispense/276"/>
  </request>
</entry>
<entry>
  <resource>
    
    
<MedicationDispense>
  <id value="278"/>
  <!--  insert contents here  -->
   <text>
    <status value="generated"/>
    <div xmlns="http://www.w3.org/1999/xhtml">
      Dispensed 30 tablets = 30 day supply of celecoxib 200 MG Oral Capsule [Celebrex]
    </div>
  </text>

  <status value="completed"/>

  <patient>
    <reference value="Patient/1768562"/>
  </patient>

  <authorizingPrescription>
    <reference value="MedicationOrder/204"/>
  </authorizingPrescription>

  <quantity>
      <value value="30"/>
      <unit value="tablets"/>
      <system value="http://unitsofmeasure.org"/>
      <code value="{tablets}"/>
  </quantity>

  <daysSupply>
      <value value="30" />
      <unit value="days" />
      <system value="http://unitsofmeasure.org" />
      <code value="d" />
  </daysSupply>

  <medicationCodeableConcept>
    <coding>
        <system value="http://www.nlm.nih.gov/research/umls/rxnorm"/>
        <code value="213469"/>
        <display value="celecoxib 200 MG Oral Capsule [Celebrex]"/>
    </coding>
    <text value="celecoxib 200 MG Oral Capsule [Celebrex]"/>
  </medicationCodeableConcept>

  <whenHandedOver value="2008-10-30"/>

</MedicationDispense>

  </resource>
  <request>
    <method value="POST"/>
    <url value="MedicationDispense/278"/>
  </request>
</entry>
<entry>
  <resource>
    
    
<MedicationOrder>
  <id value="205"/>
  <text>
    <status value="generated"/>
    <div xmlns="http://www.w3.org/1999/xhtml">
      Ramipril 10 MG Oral Capsule (rxnorm: 261962)
    </div>
  </text>

  <status value="active" />
  <patient>
    <reference value="Patient/1768562"/>
  </patient>

  <medicationCodeableConcept>
    <coding>
        <system value="http://www.nlm.nih.gov/research/umls/rxnorm"/>
        <code value="261962"/>
        <display value="Ramipril 10 MG Oral Capsule"/>
    </coding>
    <text value="Ramipril 10 MG Oral Capsule"/>
  </medicationCodeableConcept>

  <dosageInstruction>
    <timing>
      <repeat>
        <boundsPeriod>
          <start value="2008-08-28"/>
        </boundsPeriod>
        <frequency value="1"/>
        <period value="1"/>
        <periodUnits value="d"/>
      </repeat>
      
    </timing>
    <doseQuantity>
      <value value="1"/>
      <unit value="{tablet}"/>
      <system value="http://unitsofmeasure.org"/>
      <code value="{tablet}"/>
    </doseQuantity>
    
    <text value="1 daily"/>
  </dosageInstruction>
  <dispenseRequest>
     <numberOfRepeatsAllowed value="1"/>
     
     <quantity>
        <value value="180"/>
        <unit value="{tablet}"/>
        <system value="http://unitsofmeasure.org"/>
        <code value="{tablet}"/>
     </quantity>
     
     <expectedSupplyDuration>
        <value value="90"/>
        <unit value="days"/>
        <system value="http://unitsofmeasure.org"/>
        <code value="d"/>
     </expectedSupplyDuration>
     
  </dispenseRequest>
  
</MedicationOrder>

  </resource>
  <request>
    <method value="POST"/>
    <url value="MedicationOrder/205"/>
  </request>
</entry>
<entry>
  <resource>
    
    
<MedicationDispense>
  <id value="272"/>
  <!--  insert contents here  -->
   <text>
    <status value="generated"/>
    <div xmlns="http://www.w3.org/1999/xhtml">
      Dispensed 180 tablets = 90 day supply of Ramipril 10 MG Oral Capsule
    </div>
  </text>

  <status value="completed"/>

  <patient>
    <reference value="Patient/1768562"/>
  </patient>

  <authorizingPrescription>
    <reference value="MedicationOrder/205"/>
  </authorizingPrescription>

  <quantity>
      <value value="180"/>
      <unit value="tablets"/>
      <system value="http://unitsofmeasure.org"/>
      <code value="{tablets}"/>
  </quantity>

  <daysSupply>
      <value value="90" />
      <unit value="days" />
      <system value="http://unitsofmeasure.org" />
      <code value="d" />
  </daysSupply>

  <medicationCodeableConcept>
    <coding>
        <system value="http://www.nlm.nih.gov/research/umls/rxnorm"/>
        <code value="261962"/>
        <display value="Ramipril 10 MG Oral Capsule"/>
    </coding>
    <text value="Ramipril 10 MG Oral Capsule"/>
  </medicationCodeableConcept>

  <whenHandedOver value="2008-08-28"/>

</MedicationDispense>

  </resource>
  <request>
    <method value="POST"/>
    <url value="MedicationDispense/272"/>
  </request>
</entry>
<entry>
  <resource>
    
    
<MedicationDispense>
  <id value="275"/>
  <!--  insert contents here  -->
   <text>
    <status value="generated"/>
    <div xmlns="http://www.w3.org/1999/xhtml">
      Dispensed 180 tablets = 90 day supply of Ramipril 10 MG Oral Capsule
    </div>
  </text>

  <status value="completed"/>

  <patient>
    <reference value="Patient/1768562"/>
  </patient>

  <authorizingPrescription>
    <reference value="MedicationOrder/205"/>
  </authorizingPrescription>

  <quantity>
      <value value="180"/>
      <unit value="tablets"/>
      <system value="http://unitsofmeasure.org"/>
      <code value="{tablets}"/>
  </quantity>

  <daysSupply>
      <value value="90" />
      <unit value="days" />
      <system value="http://unitsofmeasure.org" />
      <code value="d" />
  </daysSupply>

  <medicationCodeableConcept>
    <coding>
        <system value="http://www.nlm.nih.gov/research/umls/rxnorm"/>
        <code value="261962"/>
        <display value="Ramipril 10 MG Oral Capsule"/>
    </coding>
    <text value="Ramipril 10 MG Oral Capsule"/>
  </medicationCodeableConcept>

  <whenHandedOver value="2009-06-17"/>

</MedicationDispense>

  </resource>
  <request>
    <method value="POST"/>
    <url value="MedicationDispense/275"/>
  </request>
</entry>
<entry>
  <resource>
    
    
<MedicationDispense>
  <id value="273"/>
  <!--  insert contents here  -->
   <text>
    <status value="generated"/>
    <div xmlns="http://www.w3.org/1999/xhtml">
      Dispensed 180 tablets = 90 day supply of Ramipril 10 MG Oral Capsule
    </div>
  </text>

  <status value="completed"/>

  <patient>
    <reference value="Patient/1768562"/>
  </patient>

  <authorizingPrescription>
    <reference value="MedicationOrder/205"/>
  </authorizingPrescription>

  <quantity>
      <value value="180"/>
      <unit value="tablets"/>
      <system value="http://unitsofmeasure.org"/>
      <code value="{tablets}"/>
  </quantity>

  <daysSupply>
      <value value="90" />
      <unit value="days" />
      <system value="http://unitsofmeasure.org" />
      <code value="d" />
  </daysSupply>

  <medicationCodeableConcept>
    <coding>
        <system value="http://www.nlm.nih.gov/research/umls/rxnorm"/>
        <code value="261962"/>
        <display value="Ramipril 10 MG Oral Capsule"/>
    </coding>
    <text value="Ramipril 10 MG Oral Capsule"/>
  </medicationCodeableConcept>

  <whenHandedOver value="2008-11-25"/>

</MedicationDispense>

  </resource>
  <request>
    <method value="POST"/>
    <url value="MedicationDispense/273"/>
  </request>
</entry>
<entry>
  <resource>
    
    
<MedicationDispense>
  <id value="274"/>
  <!--  insert contents here  -->
   <text>
    <status value="generated"/>
    <div xmlns="http://www.w3.org/1999/xhtml">
      Dispensed 180 tablets = 90 day supply of Ramipril 10 MG Oral Capsule
    </div>
  </text>

  <status value="completed"/>

  <patient>
    <reference value="Patient/1768562"/>
  </patient>

  <authorizingPrescription>
    <reference value="MedicationOrder/205"/>
  </authorizingPrescription>

  <quantity>
      <value value="180"/>
      <unit value="tablets"/>
      <system value="http://unitsofmeasure.org"/>
      <code value="{tablets}"/>
  </quantity>

  <daysSupply>
      <value value="90" />
      <unit value="days" />
      <system value="http://unitsofmeasure.org" />
      <code value="d" />
  </daysSupply>

  <medicationCodeableConcept>
    <coding>
        <system value="http://www.nlm.nih.gov/research/umls/rxnorm"/>
        <code value="261962"/>
        <display value="Ramipril 10 MG Oral Capsule"/>
    </coding>
    <text value="Ramipril 10 MG Oral Capsule"/>
  </medicationCodeableConcept>

  <whenHandedOver value="2009-03-17"/>

</MedicationDispense>

  </resource>
  <request>
    <method value="POST"/>
    <url value="MedicationDispense/274"/>
  </request>
</entry>
<entry>
  <resource>
    
    
<MedicationOrder>
  <id value="206"/>
  <text>
    <status value="generated"/>
    <div xmlns="http://www.w3.org/1999/xhtml">
      Digoxin 0.25 MG Oral Tablet (rxnorm: 197606)
    </div>
  </text>

  <status value="active" />
  <patient>
    <reference value="Patient/1768562"/>
  </patient>

  <medicationCodeableConcept>
    <coding>
        <system value="http://www.nlm.nih.gov/research/umls/rxnorm"/>
        <code value="197606"/>
        <display value="Digoxin 0.25 MG Oral Tablet"/>
    </coding>
    <text value="Digoxin 0.25 MG Oral Tablet"/>
  </medicationCodeableConcept>

  <dosageInstruction>
    <timing>
      <repeat>
        <boundsPeriod>
          <start value="2009-01-03"/>
        </boundsPeriod>
        <frequency value="1"/>
        <period value="1"/>
        <periodUnits value="d"/>
      </repeat>
      
    </timing>
    <doseQuantity>
      <value value="1"/>
      <unit value="{tablet}"/>
      <system value="http://unitsofmeasure.org"/>
      <code value="{tablet}"/>
    </doseQuantity>
    
    <text value="1 daily"/>
  </dosageInstruction>
  <dispenseRequest>
     <numberOfRepeatsAllowed value="1"/>
     
     <quantity>
        <value value="30"/>
        <unit value="{tablet}"/>
        <system value="http://unitsofmeasure.org"/>
        <code value="{tablet}"/>
     </quantity>
     
     <expectedSupplyDuration>
        <value value="30"/>
        <unit value="days"/>
        <system value="http://unitsofmeasure.org"/>
        <code value="d"/>
     </expectedSupplyDuration>
     
  </dispenseRequest>
  
</MedicationOrder>

  </resource>
  <request>
    <method value="POST"/>
    <url value="MedicationOrder/206"/>
  </request>
</entry>
<entry>
  <resource>
    
    
<MedicationDispense>
  <id value="280"/>
  <!--  insert contents here  -->
   <text>
    <status value="generated"/>
    <div xmlns="http://www.w3.org/1999/xhtml">
      Dispensed 30 tablets = 30 day supply of Digoxin 0.25 MG Oral Tablet
    </div>
  </text>

  <status value="completed"/>

  <patient>
    <reference value="Patient/1768562"/>
  </patient>

  <authorizingPrescription>
    <reference value="MedicationOrder/206"/>
  </authorizingPrescription>

  <quantity>
      <value value="30"/>
      <unit value="tablets"/>
      <system value="http://unitsofmeasure.org"/>
      <code value="{tablets}"/>
  </quantity>

  <daysSupply>
      <value value="30" />
      <unit value="days" />
      <system value="http://unitsofmeasure.org" />
      <code value="d" />
  </daysSupply>

  <medicationCodeableConcept>
    <coding>
        <system value="http://www.nlm.nih.gov/research/umls/rxnorm"/>
        <code value="197606"/>
        <display value="Digoxin 0.25 MG Oral Tablet"/>
    </coding>
    <text value="Digoxin 0.25 MG Oral Tablet"/>
  </medicationCodeableConcept>

  <whenHandedOver value="2009-01-03"/>

</MedicationDispense>

  </resource>
  <request>
    <method value="POST"/>
    <url value="MedicationDispense/280"/>
  </request>
</entry>
<entry>
  <resource>
    
    
<MedicationOrder>
  <id value="207"/>
  <text>
    <status value="generated"/>
    <div xmlns="http://www.w3.org/1999/xhtml">
      Furosemide 20 MG Oral Tablet (rxnorm: 310429)
    </div>
  </text>

  <status value="active" />
  <patient>
    <reference value="Patient/1768562"/>
  </patient>

  <medicationCodeableConcept>
    <coding>
        <system value="http://www.nlm.nih.gov/research/umls/rxnorm"/>
        <code value="310429"/>
        <display value="Furosemide 20 MG Oral Tablet"/>
    </coding>
    <text value="Furosemide 20 MG Oral Tablet"/>
  </medicationCodeableConcept>

  <dosageInstruction>
    <timing>
      <repeat>
        <boundsPeriod>
          <start value="2009-02-05"/>
        </boundsPeriod>
        <frequency value="1"/>
        <period value="1"/>
        <periodUnits value="d"/>
      </repeat>
      
    </timing>
    <doseQuantity>
      <value value="1"/>
      <unit value="{tablet}"/>
      <system value="http://unitsofmeasure.org"/>
      <code value="{tablet}"/>
    </doseQuantity>
    
    <text value="1 daily"/>
  </dosageInstruction>
  <dispenseRequest>
     <numberOfRepeatsAllowed value="1"/>
     
     <quantity>
        <value value="60"/>
        <unit value="{tablet}"/>
        <system value="http://unitsofmeasure.org"/>
        <code value="{tablet}"/>
     </quantity>
     
     <expectedSupplyDuration>
        <value value="30"/>
        <unit value="days"/>
        <system value="http://unitsofmeasure.org"/>
        <code value="d"/>
     </expectedSupplyDuration>
     
  </dispenseRequest>
  
</MedicationOrder>

  </resource>
  <request>
    <method value="POST"/>
    <url value="MedicationOrder/207"/>
  </request>
</entry>
<entry>
  <resource>
    
    
<MedicationDispense>
  <id value="304"/>
  <!--  insert contents here  -->
   <text>
    <status value="generated"/>
    <div xmlns="http://www.w3.org/1999/xhtml">
      Dispensed 60 tablets = 30 day supply of Furosemide 20 MG Oral Tablet
    </div>
  </text>

  <status value="completed"/>

  <patient>
    <reference value="Patient/1768562"/>
  </patient>

  <authorizingPrescription>
    <reference value="MedicationOrder/207"/>
  </authorizingPrescription>

  <quantity>
      <value value="60"/>
      <unit value="tablets"/>
      <system value="http://unitsofmeasure.org"/>
      <code value="{tablets}"/>
  </quantity>

  <daysSupply>
      <value value="30" />
      <unit value="days" />
      <system value="http://unitsofmeasure.org" />
      <code value="d" />
  </daysSupply>

  <medicationCodeableConcept>
    <coding>
        <system value="http://www.nlm.nih.gov/research/umls/rxnorm"/>
        <code value="310429"/>
        <display value="Furosemide 20 MG Oral Tablet"/>
    </coding>
    <text value="Furosemide 20 MG Oral Tablet"/>
  </medicationCodeableConcept>

  <whenHandedOver value="2009-04-18"/>

</MedicationDispense>

  </resource>
  <request>
    <method value="POST"/>
    <url value="MedicationDispense/304"/>
  </request>
</entry>
<entry>
  <resource>
    
    
<MedicationDispense>
  <id value="302"/>
  <!--  insert contents here  -->
   <text>
    <status value="generated"/>
    <div xmlns="http://www.w3.org/1999/xhtml">
      Dispensed 60 tablets = 30 day supply of Furosemide 20 MG Oral Tablet
    </div>
  </text>

  <status value="completed"/>

  <patient>
    <reference value="Patient/1768562"/>
  </patient>

  <authorizingPrescription>
    <reference value="MedicationOrder/207"/>
  </authorizingPrescription>

  <quantity>
      <value value="60"/>
      <unit value="tablets"/>
      <system value="http://unitsofmeasure.org"/>
      <code value="{tablets}"/>
  </quantity>

  <daysSupply>
      <value value="30" />
      <unit value="days" />
      <system value="http://unitsofmeasure.org" />
      <code value="d" />
  </daysSupply>

  <medicationCodeableConcept>
    <coding>
        <system value="http://www.nlm.nih.gov/research/umls/rxnorm"/>
        <code value="310429"/>
        <display value="Furosemide 20 MG Oral Tablet"/>
    </coding>
    <text value="Furosemide 20 MG Oral Tablet"/>
  </medicationCodeableConcept>

  <whenHandedOver value="2009-02-05"/>

</MedicationDispense>

  </resource>
  <request>
    <method value="POST"/>
    <url value="MedicationDispense/302"/>
  </request>
</entry>
<entry>
  <resource>
    
    
<MedicationDispense>
  <id value="306"/>
  <!--  insert contents here  -->
   <text>
    <status value="generated"/>
    <div xmlns="http://www.w3.org/1999/xhtml">
      Dispensed 60 tablets = 30 day supply of Furosemide 20 MG Oral Tablet
    </div>
  </text>

  <status value="completed"/>

  <patient>
    <reference value="Patient/1768562"/>
  </patient>

  <authorizingPrescription>
    <reference value="MedicationOrder/207"/>
  </authorizingPrescription>

  <quantity>
      <value value="60"/>
      <unit value="tablets"/>
      <system value="http://unitsofmeasure.org"/>
      <code value="{tablets}"/>
  </quantity>

  <daysSupply>
      <value value="30" />
      <unit value="days" />
      <system value="http://unitsofmeasure.org" />
      <code value="d" />
  </daysSupply>

  <medicationCodeableConcept>
    <coding>
        <system value="http://www.nlm.nih.gov/research/umls/rxnorm"/>
        <code value="310429"/>
        <display value="Furosemide 20 MG Oral Tablet"/>
    </coding>
    <text value="Furosemide 20 MG Oral Tablet"/>
  </medicationCodeableConcept>

  <whenHandedOver value="2009-07-02"/>

</MedicationDispense>

  </resource>
  <request>
    <method value="POST"/>
    <url value="MedicationDispense/306"/>
  </request>
</entry>
<entry>
  <resource>
    
    
<MedicationDispense>
  <id value="305"/>
  <!--  insert contents here  -->
   <text>
    <status value="generated"/>
    <div xmlns="http://www.w3.org/1999/xhtml">
      Dispensed 60 tablets = 30 day supply of Furosemide 20 MG Oral Tablet
    </div>
  </text>

  <status value="completed"/>

  <patient>
    <reference value="Patient/1768562"/>
  </patient>

  <authorizingPrescription>
    <reference value="MedicationOrder/207"/>
  </authorizingPrescription>

  <quantity>
      <value value="60"/>
      <unit value="tablets"/>
      <system value="http://unitsofmeasure.org"/>
      <code value="{tablets}"/>
  </quantity>

  <daysSupply>
      <value value="30" />
      <unit value="days" />
      <system value="http://unitsofmeasure.org" />
      <code value="d" />
  </daysSupply>

  <medicationCodeableConcept>
    <coding>
        <system value="http://www.nlm.nih.gov/research/umls/rxnorm"/>
        <code value="310429"/>
        <display value="Furosemide 20 MG Oral Tablet"/>
    </coding>
    <text value="Furosemide 20 MG Oral Tablet"/>
  </medicationCodeableConcept>

  <whenHandedOver value="2009-05-27"/>

</MedicationDispense>

  </resource>
  <request>
    <method value="POST"/>
    <url value="MedicationDispense/305"/>
  </request>
</entry>
<entry>
  <resource>
    
    
<MedicationDispense>
  <id value="307"/>
  <!--  insert contents here  -->
   <text>
    <status value="generated"/>
    <div xmlns="http://www.w3.org/1999/xhtml">
      Dispensed 60 tablets = 30 day supply of Furosemide 20 MG Oral Tablet
    </div>
  </text>

  <status value="completed"/>

  <patient>
    <reference value="Patient/1768562"/>
  </patient>

  <authorizingPrescription>
    <reference value="MedicationOrder/207"/>
  </authorizingPrescription>

  <quantity>
      <value value="60"/>
      <unit value="tablets"/>
      <system value="http://unitsofmeasure.org"/>
      <code value="{tablets}"/>
  </quantity>

  <daysSupply>
      <value value="30" />
      <unit value="days" />
      <system value="http://unitsofmeasure.org" />
      <code value="d" />
  </daysSupply>

  <medicationCodeableConcept>
    <coding>
        <system value="http://www.nlm.nih.gov/research/umls/rxnorm"/>
        <code value="310429"/>
        <display value="Furosemide 20 MG Oral Tablet"/>
    </coding>
    <text value="Furosemide 20 MG Oral Tablet"/>
  </medicationCodeableConcept>

  <whenHandedOver value="2009-08-04"/>

</MedicationDispense>

  </resource>
  <request>
    <method value="POST"/>
    <url value="MedicationDispense/307"/>
  </request>
</entry>
<entry>
  <resource>
    
    
<MedicationDispense>
  <id value="303"/>
  <!--  insert contents here  -->
   <text>
    <status value="generated"/>
    <div xmlns="http://www.w3.org/1999/xhtml">
      Dispensed 60 tablets = 30 day supply of Furosemide 20 MG Oral Tablet
    </div>
  </text>

  <status value="completed"/>

  <patient>
    <reference value="Patient/1768562"/>
  </patient>

  <authorizingPrescription>
    <reference value="MedicationOrder/207"/>
  </authorizingPrescription>

  <quantity>
      <value value="60"/>
      <unit value="tablets"/>
      <system value="http://unitsofmeasure.org"/>
      <code value="{tablets}"/>
  </quantity>

  <daysSupply>
      <value value="30" />
      <unit value="days" />
      <system value="http://unitsofmeasure.org" />
      <code value="d" />
  </daysSupply>

  <medicationCodeableConcept>
    <coding>
        <system value="http://www.nlm.nih.gov/research/umls/rxnorm"/>
        <code value="310429"/>
        <display value="Furosemide 20 MG Oral Tablet"/>
    </coding>
    <text value="Furosemide 20 MG Oral Tablet"/>
  </medicationCodeableConcept>

  <whenHandedOver value="2009-03-17"/>

</MedicationDispense>

  </resource>
  <request>
    <method value="POST"/>
    <url value="MedicationDispense/303"/>
  </request>
</entry>
  <entry>
  <resource>
    
    
  <Condition>
  <id value="163"/>
    <text>
     <status value="generated"/>
     <div xmlns="http://www.w3.org/1999/xhtml">Atrial fibrillation</div>   
   </text>
    <patient>
      <reference value="Patient/1768562"/>
    </patient>
    <code> 
      <coding>
        <system value="http://snomed.info/sct"/>
        <code value="49436004"/>
        <display value="Atrial fibrillation"/>
      </coding>
      <text value="Atrial fibrillation"/>
    </code>
   <clinicalStatus value="confirmed"/>
   <onsetDateTime value="2003-11-30"/>
   
  </Condition>
  
  </resource>
  <request>
    <method value="POST"/>
    <url value="Condition/163"/>
  </request>
</entry>
  <entry>
  <resource>
    
    
  <Condition>
  <id value="164"/>
    <text>
     <status value="generated"/>
     <div xmlns="http://www.w3.org/1999/xhtml">Chest pain</div>   
   </text>
    <patient>
      <reference value="Patient/1768562"/>
    </patient>
    <code> 
      <coding>
        <system value="http://snomed.info/sct"/>
        <code value="29857009"/>
        <display value="Chest pain"/>
      </coding>
      <text value="Chest pain"/>
    </code>
   <clinicalStatus value="confirmed"/>
   <onsetDateTime value="2003-11-30"/>
   
  </Condition>
  
  </resource>
  <request>
    <method value="POST"/>
    <url value="Condition/164"/>
  </request>
</entry>
  <entry>
  <resource>
    
    
  <Condition>
  <id value="165"/>
    <text>
     <status value="generated"/>
     <div xmlns="http://www.w3.org/1999/xhtml">Chronic pulmonary heart disease</div>   
   </text>
    <patient>
      <reference value="Patient/1768562"/>
    </patient>
    <code> 
      <coding>
        <system value="http://snomed.info/sct"/>
        <code value="88223008"/>
        <display value="Chronic pulmonary heart disease"/>
      </coding>
      <text value="Chronic pulmonary heart disease"/>
    </code>
   <clinicalStatus value="confirmed"/>
   <onsetDateTime value="2003-11-30"/>
   
  </Condition>
  
  </resource>
  <request>
    <method value="POST"/>
    <url value="Condition/165"/>
  </request>
</entry>
  <entry>
  <resource>
    
    
  <Condition>
  <id value="166"/>
    <text>
     <status value="generated"/>
     <div xmlns="http://www.w3.org/1999/xhtml">Congestive rheumatic heart failure</div>   
   </text>
    <patient>
      <reference value="Patient/1768562"/>
    </patient>
    <code> 
      <coding>
        <system value="http://snomed.info/sct"/>
        <code value="82523003"/>
        <display value="Congestive rheumatic heart failure"/>
      </coding>
      <text value="Congestive rheumatic heart failure"/>
    </code>
   <clinicalStatus value="confirmed"/>
   <onsetDateTime value="2003-11-30"/>
   
  </Condition>
  
  </resource>
  <request>
    <method value="POST"/>
    <url value="Condition/166"/>
  </request>
</entry>
  <entry>
  <resource>
    
    
  <Condition>
  <id value="167"/>
    <text>
     <status value="generated"/>
     <div xmlns="http://www.w3.org/1999/xhtml">Coronary arteriosclerosis</div>   
   </text>
    <patient>
      <reference value="Patient/1768562"/>
    </patient>
    <code> 
      <coding>
        <system value="http://snomed.info/sct"/>
        <code value="233817007"/>
        <display value="Coronary arteriosclerosis"/>
      </coding>
      <text value="Coronary arteriosclerosis"/>
    </code>
   <clinicalStatus value="confirmed"/>
   <onsetDateTime value="2003-11-30"/>
   
  </Condition>
  
  </resource>
  <request>
    <method value="POST"/>
    <url value="Condition/167"/>
  </request>
</entry>
  <entry>
  <resource>
    
    
  <Condition>
  <id value="168"/>
    <text>
     <status value="generated"/>
     <div xmlns="http://www.w3.org/1999/xhtml">Dilated cardiomyopathy secondary to alcohol</div>   
   </text>
    <patient>
      <reference value="Patient/1768562"/>
    </patient>
    <code> 
      <coding>
        <system value="http://snomed.info/sct"/>
        <code value="83521008"/>
        <display value="Dilated cardiomyopathy secondary to alcohol"/>
      </coding>
      <text value="Dilated cardiomyopathy secondary to alcohol"/>
    </code>
   <clinicalStatus value="confirmed"/>
   <onsetDateTime value="2003-11-30"/>
   
  </Condition>
  
  </resource>
  <request>
    <method value="POST"/>
    <url value="Condition/168"/>
  </request>
</entry>
  <entry>
  <resource>
    
    
  <Condition>
  <id value="169"/>
    <text>
     <status value="generated"/>
     <div xmlns="http://www.w3.org/1999/xhtml">FH: Cardiac disorder</div>   
   </text>
    <patient>
      <reference value="Patient/1768562"/>
    </patient>
    <code> 
      <coding>
        <system value="http://snomed.info/sct"/>
        <code value="297242006"/>
        <display value="FH: Cardiac disorder"/>
      </coding>
      <text value="FH: Cardiac disorder"/>
    </code>
   <clinicalStatus value="confirmed"/>
   <onsetDateTime value="2003-11-30"/>
   
  </Condition>
  
  </resource>
  <request>
    <method value="POST"/>
    <url value="Condition/169"/>
  </request>
</entry>
  <entry>
  <resource>
    
    
  <Condition>
  <id value="170"/>
    <text>
     <status value="generated"/>
     <div xmlns="http://www.w3.org/1999/xhtml">Hypertensive heart disease, unspecified, without heart failure</div>   
   </text>
    <patient>
      <reference value="Patient/1768562"/>
    </patient>
    <code> 
      <coding>
        <system value="http://snomed.info/sct"/>
        <code value="64715009"/>
        <display value="Hypertensive heart disease, unspecified, without heart failure"/>
      </coding>
      <text value="Hypertensive heart disease, unspecified, without heart failure"/>
    </code>
   <clinicalStatus value="confirmed"/>
   <onsetDateTime value="2003-11-30"/>
   
  </Condition>
  
  </resource>
  <request>
    <method value="POST"/>
    <url value="Condition/170"/>
  </request>
</entry>
  <entry>
  <resource>
    
    
  <Condition>
  <id value="171"/>
    <text>
     <status value="generated"/>
     <div xmlns="http://www.w3.org/1999/xhtml">Sinus node dysfunction</div>   
   </text>
    <patient>
      <reference value="Patient/1768562"/>
    </patient>
    <code> 
      <coding>
        <system value="http://snomed.info/sct"/>
        <code value="36083008"/>
        <display value="Sinus node dysfunction"/>
      </coding>
      <text value="Sinus node dysfunction"/>
    </code>
   <clinicalStatus value="confirmed"/>
   <onsetDateTime value="2003-11-30"/>
   
  </Condition>
  
  </resource>
  <request>
    <method value="POST"/>
    <url value="Condition/171"/>
  </request>
</entry>
  <entry>
  <resource>
    
    
  <Condition>
  <id value="172"/>
    <text>
     <status value="generated"/>
     <div xmlns="http://www.w3.org/1999/xhtml">Tobacco dependence syndrome</div>   
   </text>
    <patient>
      <reference value="Patient/1768562"/>
    </patient>
    <code> 
      <coding>
        <system value="http://snomed.info/sct"/>
        <code value="89765005"/>
        <display value="Tobacco dependence syndrome"/>
      </coding>
      <text value="Tobacco dependence syndrome"/>
    </code>
   <clinicalStatus value="confirmed"/>
   <onsetDateTime value="2003-11-30"/>
   
  </Condition>
  
  </resource>
  <request>
    <method value="POST"/>
    <url value="Condition/172"/>
  </request>
</entry>
  <entry>
  <resource>
    
    
  <Condition>
  <id value="173"/>
    <text>
     <status value="generated"/>
     <div xmlns="http://www.w3.org/1999/xhtml">Cardiomyopathy</div>   
   </text>
    <patient>
      <reference value="Patient/1768562"/>
    </patient>
    <code> 
      <coding>
        <system value="http://snomed.info/sct"/>
        <code value="85898001"/>
        <display value="Cardiomyopathy"/>
      </coding>
      <text value="Cardiomyopathy"/>
    </code>
   <clinicalStatus value="confirmed"/>
   <onsetDateTime value="2004-01-03"/>
   
  </Condition>
  
  </resource>
  <request>
    <method value="POST"/>
    <url value="Condition/173"/>
  </request>
</entry>
  <entry>
  <resource>
    
    
  <Condition>
  <id value="174"/>
    <text>
     <status value="generated"/>
     <div xmlns="http://www.w3.org/1999/xhtml">Depressive disorder</div>   
   </text>
    <patient>
      <reference value="Patient/1768562"/>
    </patient>
    <code> 
      <coding>
        <system value="http://snomed.info/sct"/>
        <code value="35489007"/>
        <display value="Depressive disorder"/>
      </coding>
      <text value="Depressive disorder"/>
    </code>
   <clinicalStatus value="confirmed"/>
   <onsetDateTime value="2004-01-03"/>
   
  </Condition>
  
  </resource>
  <request>
    <method value="POST"/>
    <url value="Condition/174"/>
  </request>
</entry>
  <entry>
  <resource>
    
    
  <Condition>
  <id value="175"/>
    <text>
     <status value="generated"/>
     <div xmlns="http://www.w3.org/1999/xhtml">History of tobacco use</div>   
   </text>
    <patient>
      <reference value="Patient/1768562"/>
    </patient>
    <code> 
      <coding>
        <system value="http://snomed.info/sct"/>
        <code value="8517006"/>
        <display value="History of tobacco use"/>
      </coding>
      <text value="History of tobacco use"/>
    </code>
   <clinicalStatus value="confirmed"/>
   <onsetDateTime value="2004-01-03"/>
   
  </Condition>
  
  </resource>
  <request>
    <method value="POST"/>
    <url value="Condition/175"/>
  </request>
</entry>
  <entry>
  <resource>
    
    
  <Condition>
  <id value="176"/>
    <text>
     <status value="generated"/>
     <div xmlns="http://www.w3.org/1999/xhtml">Hyperlipidemia</div>   
   </text>
    <patient>
      <reference value="Patient/1768562"/>
    </patient>
    <code> 
      <coding>
        <system value="http://snomed.info/sct"/>
        <code value="55822004"/>
        <display value="Hyperlipidemia"/>
      </coding>
      <text value="Hyperlipidemia"/>
    </code>
   <clinicalStatus value="confirmed"/>
   <onsetDateTime value="2004-01-03"/>
   
  </Condition>
  
  </resource>
  <request>
    <method value="POST"/>
    <url value="Condition/176"/>
  </request>
</entry>
  <entry>
  <resource>
    
    
  <Condition>
  <id value="177"/>
    <text>
     <status value="generated"/>
     <div xmlns="http://www.w3.org/1999/xhtml">Chronic obstructive lung disease</div>   
   </text>
    <patient>
      <reference value="Patient/1768562"/>
    </patient>
    <code> 
      <coding>
        <system value="http://snomed.info/sct"/>
        <code value="13645005"/>
        <display value="Chronic obstructive lung disease"/>
      </coding>
      <text value="Chronic obstructive lung disease"/>
    </code>
   <clinicalStatus value="confirmed"/>
   <onsetDateTime value="2004-09-15"/>
   
  </Condition>
  
  </resource>
  <request>
    <method value="POST"/>
    <url value="Condition/177"/>
  </request>
</entry>
  <entry>
  <resource>
    
    
  <Procedure>
  <id value="12"/>
   <text>
     <status value="generated"/>
     <div xmlns="http://www.w3.org/1999/xhtml">Coronary artery bypass with autogenous graft, three grafts</div>
   </text>
   <subject>
      <reference value="Patient/1768562"/>
   </subject>
   <code>
      <coding>
        <system value="http://snomed.info/sct"/>
        <code value="10326007"/>
        <display value="Coronary artery bypass with autogenous graft, three grafts"/>
      </coding>
      <text value="Coronary artery bypass with autogenous graft, three grafts"/>
   </code>
   <performedDateTime value="2007-11-30"/>
  </Procedure>
  
  </resource>
  <request>
    <method value="POST"/>
    <url value="Procedure/12"/>
  </request>
</entry>
<entry>
  <resource>
    
    
  <Observation>
  <id value="29-smokingstatus"/>
    <text>
      <status value="generated"/>
      <div xmlns="http://www.w3.org/1999/xhtml">Tobacco smoking status: Current some day smoker</div>
    </text>
    <code>
      <coding>
        <system value="http://loinc.org"/>
        <code value="72166-2"/>
        <display value="Tobacco smoking status"/>
      </coding>
      <text value="Tobacco smoking status"/>
    </code>
    <valueCodeableConcept>
      <coding>
        <system value="http://snomed.info/sct"/>
        <code value="428041000124106"/>
        <display value="Current some day smoker"/>
      </coding>
      <text value="Current some day smoker"/>
    </valueCodeableConcept>
    <status value="final"/>
    <subject>
      <reference value="Patient/1768562"/>
    </subject>
  </Observation>
  
  </resource>
  <request>
    <method value="POST"/>
    <url value="Observation/29-smokingstatus"/>
  </request>
</entry>
<entry>
  <resource>
    
    
  <Observation>
  <id value="1768562-gestage"/>
    <text>
      <status value="generated"/>
      <div xmlns="http://www.w3.org/1999/xhtml">1939-08-30: Gestational age at birth = 37.9 weeks</div>
    </text>
    <code>
      <coding>
        <system value="http://loinc.org"/>
        <code value="18185-9"/>
        <display value="Gestational age at birth"/>
      </coding>
      <text value="Gestational age at birth"/>
    </code>
    <valueQuantity>
      <value value="37.9"/>
      <unit value="weeks"/>
      <system value="http://unitsofmeasure.org" />
      <code value="wk"/>
    </valueQuantity>
    
    <effectiveDateTime value="1939-08-30"/>
    <status value="final"/>
    <subject>
      <reference value="Patient/1768562"/>
    </subject>
  </Observation>
  
  </resource>
  <request>
    <method value="POST"/>
    <url value="Observation/1768562-gestage"/>
  </request>
</entry>
  <entry>
  <resource>
    
    
    <List>
  <id value="41"/>
        <text>
            <status value="generated"/>
            <div xmlns="http://www.w3.org/1999/xhtml">No known allergies</div>
        </text>
        <code>
            <coding>
               <system value="http://loinc.org/"/>
               <code value="52473-6"/>
               <display value="Allergy"/>
            </coding>
            <text value="Allergy"/>
        </code>
        <subject>
          <reference value="Patient/1768562"/>
        </subject>
        <date value="2000"/>
        <mode value="snapshot"/>
        <emptyReason>
            <coding>
                <system value="http://hl7.org/fhir/list-empty-reason"/>
                <code value="nilknown"/>
                <display value="Nil Known"/>
            </coding>
            <text value="Nil Known"/>
        </emptyReason>
    </List>
  
  </resource>
  <request>
    <method value="POST"/>
    <url value="List/41"/>
  </request>
</entry>

</Bundle>
