<?xml version="1.0" encoding="UTF-8"?>
<Bundle xmlns="http://hl7.org/fhir">
    <type value="transaction"/>

  <entry>
  <resource>
    
    
  <Patient>
    <id value="981968"/>
    <text>
      <status value="generated"/>
      <div xmlns="http://www.w3.org/1999/xhtml">
        <p>Brian Brooks</p>
      </div>
    </text>
    <identifier>
      <use value="usual"/>
      <type>
        <coding>
          <system value="http://hl7.org/fhir/v2/0203"/>
          <code value="MR"/>
          <display value="Medical record number"/>
        </coding>
        <text value="Medical record number"/>
      </type>
      <system value="http://hospital.smarthealthit.org"/>
      <value value="981968"/>
    </identifier>
    <name>
      <use value="official"/>
      <family value="Brooks"/>
      <given value="Brian"/>
      <given value="N."/>
    </name>
    <telecom>
      <system value="phone"/>
      <value value="800-369-6403"/>
      <use value="home"/>
    </telecom>
    <telecom>
      <system value="email"/>
      <value value="brian.brooks@example.com"/>
    </telecom>
    <gender value="male" />
    <birthDate value="1956-03-23" />
    <address>
      <use value="home"/>
      <line value="82 Lake St"/>
      <city value="Bixby"/>
      <state value="OK"/>
      <postalCode value="74008"/>
      <country value="USA"/>
    </address>
    <active value="true"/>
  </Patient>
  
  </resource>
  <request>
    <method value="POST"/>
    <url value="Patient/981968"/>
  </request>
</entry>
  <entry>
  <resource>
    
    
    <Encounter>
  <id value="131"/>
      <text>
        <status value="generated"/>
        <div xmlns="http://www.w3.org/1999/xhtml">1997-04-25: ambulatory encounter</div>
      </text>
      <status value="finished"/>
      <class value="ambulatory"/>
      <patient>
        <reference value="Patient/981968"/>
      </patient>
      <period>
       <start value="1997-04-25"/>
       <end value="1997-04-25"/>
      </period>
    </Encounter>
  
  </resource>
  <request>
    <method value="POST"/>
    <url value="Encounter/131"/>
  </request>
</entry>
  <entry>
  <resource>
    
    
    <Encounter>
  <id value="132"/>
      <text>
        <status value="generated"/>
        <div xmlns="http://www.w3.org/1999/xhtml">1997-04-28: ambulatory encounter</div>
      </text>
      <status value="finished"/>
      <class value="ambulatory"/>
      <patient>
        <reference value="Patient/981968"/>
      </patient>
      <period>
       <start value="1997-04-28"/>
       <end value="1997-04-28"/>
      </period>
    </Encounter>
  
  </resource>
  <request>
    <method value="POST"/>
    <url value="Encounter/132"/>
  </request>
</entry>
  <entry>
  <resource>
    
    
    <Encounter>
  <id value="133"/>
      <text>
        <status value="generated"/>
        <div xmlns="http://www.w3.org/1999/xhtml">1998-12-03: ambulatory encounter</div>
      </text>
      <status value="finished"/>
      <class value="ambulatory"/>
      <patient>
        <reference value="Patient/981968"/>
      </patient>
      <period>
       <start value="1998-12-03"/>
       <end value="1998-12-03"/>
      </period>
    </Encounter>
  
  </resource>
  <request>
    <method value="POST"/>
    <url value="Encounter/133"/>
  </request>
</entry>
  <entry>
  <resource>
    
    
    <Encounter>
  <id value="134"/>
      <text>
        <status value="generated"/>
        <div xmlns="http://www.w3.org/1999/xhtml">2001-01-18: ambulatory encounter</div>
      </text>
      <status value="finished"/>
      <class value="ambulatory"/>
      <patient>
        <reference value="Patient/981968"/>
      </patient>
      <period>
       <start value="2001-01-18"/>
       <end value="2001-01-18"/>
      </period>
    </Encounter>
  
  </resource>
  <request>
    <method value="POST"/>
    <url value="Encounter/134"/>
  </request>
</entry>
  <entry>
  <resource>
    
    
    <Encounter>
  <id value="135"/>
      <text>
        <status value="generated"/>
        <div xmlns="http://www.w3.org/1999/xhtml">2001-01-19: ambulatory encounter</div>
      </text>
      <status value="finished"/>
      <class value="ambulatory"/>
      <patient>
        <reference value="Patient/981968"/>
      </patient>
      <period>
       <start value="2001-01-19"/>
       <end value="2001-01-19"/>
      </period>
    </Encounter>
  
  </resource>
  <request>
    <method value="POST"/>
    <url value="Encounter/135"/>
  </request>
</entry>
  <entry>
  <resource>
    
    
    <Encounter>
  <id value="136"/>
      <text>
        <status value="generated"/>
        <div xmlns="http://www.w3.org/1999/xhtml">2005-02-28: ambulatory encounter</div>
      </text>
      <status value="finished"/>
      <class value="ambulatory"/>
      <patient>
        <reference value="Patient/981968"/>
      </patient>
      <period>
       <start value="2005-02-28"/>
       <end value="2005-02-28"/>
      </period>
    </Encounter>
  
  </resource>
  <request>
    <method value="POST"/>
    <url value="Encounter/136"/>
  </request>
</entry>
  <entry>
  <resource>
    
    
    <Encounter>
  <id value="137"/>
      <text>
        <status value="generated"/>
        <div xmlns="http://www.w3.org/1999/xhtml">2005-04-29: ambulatory encounter</div>
      </text>
      <status value="finished"/>
      <class value="ambulatory"/>
      <patient>
        <reference value="Patient/981968"/>
      </patient>
      <period>
       <start value="2005-04-29"/>
       <end value="2005-04-29"/>
      </period>
    </Encounter>
  
  </resource>
  <request>
    <method value="POST"/>
    <url value="Encounter/137"/>
  </request>
</entry>
  <entry>
  <resource>
    
    
    <Encounter>
  <id value="138"/>
      <text>
        <status value="generated"/>
        <div xmlns="http://www.w3.org/1999/xhtml">2005-05-02: ambulatory encounter</div>
      </text>
      <status value="finished"/>
      <class value="ambulatory"/>
      <patient>
        <reference value="Patient/981968"/>
      </patient>
      <period>
       <start value="2005-05-02"/>
       <end value="2005-05-02"/>
      </period>
    </Encounter>
  
  </resource>
  <request>
    <method value="POST"/>
    <url value="Encounter/138"/>
  </request>
</entry>
  <entry>
  <resource>
    
    
    <Encounter>
  <id value="139"/>
      <text>
        <status value="generated"/>
        <div xmlns="http://www.w3.org/1999/xhtml">2005-05-25: ambulatory encounter</div>
      </text>
      <status value="finished"/>
      <class value="ambulatory"/>
      <patient>
        <reference value="Patient/981968"/>
      </patient>
      <period>
       <start value="2005-05-25"/>
       <end value="2005-05-25"/>
      </period>
    </Encounter>
  
  </resource>
  <request>
    <method value="POST"/>
    <url value="Encounter/139"/>
  </request>
</entry>
  <entry>
  <resource>
    
    
    <Encounter>
  <id value="140"/>
      <text>
        <status value="generated"/>
        <div xmlns="http://www.w3.org/1999/xhtml">2008-11-24: ambulatory encounter</div>
      </text>
      <status value="finished"/>
      <class value="ambulatory"/>
      <patient>
        <reference value="Patient/981968"/>
      </patient>
      <period>
       <start value="2008-11-24"/>
       <end value="2008-11-24"/>
      </period>
    </Encounter>
  
  </resource>
  <request>
    <method value="POST"/>
    <url value="Encounter/140"/>
  </request>
</entry>
  <entry>
  <resource>
    
    
    <Encounter>
  <id value="141"/>
      <text>
        <status value="generated"/>
        <div xmlns="http://www.w3.org/1999/xhtml">2008-11-25: ambulatory encounter</div>
      </text>
      <status value="finished"/>
      <class value="ambulatory"/>
      <patient>
        <reference value="Patient/981968"/>
      </patient>
      <period>
       <start value="2008-11-25"/>
       <end value="2008-11-25"/>
      </period>
    </Encounter>
  
  </resource>
  <request>
    <method value="POST"/>
    <url value="Encounter/141"/>
  </request>
</entry>
  <entry>
  <resource>
    
    
    <Encounter>
  <id value="142"/>
      <text>
        <status value="generated"/>
        <div xmlns="http://www.w3.org/1999/xhtml">2008-11-28: ambulatory encounter</div>
      </text>
      <status value="finished"/>
      <class value="ambulatory"/>
      <patient>
        <reference value="Patient/981968"/>
      </patient>
      <period>
       <start value="2008-11-28"/>
       <end value="2008-11-28"/>
      </period>
    </Encounter>
  
  </resource>
  <request>
    <method value="POST"/>
    <url value="Encounter/142"/>
  </request>
</entry>
  <entry>
  <resource>
    
    
    <Encounter>
  <id value="143"/>
      <text>
        <status value="generated"/>
        <div xmlns="http://www.w3.org/1999/xhtml">2009-05-11: ambulatory encounter</div>
      </text>
      <status value="finished"/>
      <class value="ambulatory"/>
      <patient>
        <reference value="Patient/981968"/>
      </patient>
      <period>
       <start value="2009-05-11"/>
       <end value="2009-05-11"/>
      </period>
    </Encounter>
  
  </resource>
  <request>
    <method value="POST"/>
    <url value="Encounter/143"/>
  </request>
</entry>
  <entry>
  <resource>
    
    
    <Encounter>
  <id value="144"/>
      <text>
        <status value="generated"/>
        <div xmlns="http://www.w3.org/1999/xhtml">2009-05-13: ambulatory encounter</div>
      </text>
      <status value="finished"/>
      <class value="ambulatory"/>
      <patient>
        <reference value="Patient/981968"/>
      </patient>
      <period>
       <start value="2009-05-13"/>
       <end value="2009-05-13"/>
      </period>
    </Encounter>
  
  </resource>
  <request>
    <method value="POST"/>
    <url value="Encounter/144"/>
  </request>
</entry>
  <entry>
  <resource>
    
    
    <Encounter>
  <id value="145"/>
      <text>
        <status value="generated"/>
        <div xmlns="http://www.w3.org/1999/xhtml">2009-05-14: ambulatory encounter</div>
      </text>
      <status value="finished"/>
      <class value="ambulatory"/>
      <patient>
        <reference value="Patient/981968"/>
      </patient>
      <period>
       <start value="2009-05-14"/>
       <end value="2009-05-14"/>
      </period>
    </Encounter>
  
  </resource>
  <request>
    <method value="POST"/>
    <url value="Encounter/145"/>
  </request>
</entry>
  <entry>
  <resource>
    
    
  <Observation>
    <id value="131-bp"/>
    <text>
      <status value="generated"/>
      <div xmlns="http://www.w3.org/1999/xhtml">1997-04-25: Blood pressure 144/91 mmHg</div>
    </text>
    <code>
      <coding>
        <system value="http://loinc.org"/>
        <code value="55284-4"/>
        <display value="Blood pressure systolic and diastolic"/>
      </coding>
      <text value="Blood pressure systolic and diastolic"/>
    </code>
    <effectiveDateTime value="1997-04-25"/>
    <status value="final"/>
    <subject>
      <reference value="Patient/981968"/>
    </subject>
    <encounter>
      <reference value="Encounter/131"/>
    </encounter>
    

    <component>
        <code>
            <coding>
                <system value="http://loinc.org"/>
                <code value="8480-6"/>
                <display value="Systolic blood pressure"/>
            </coding>
            <text value="Systolic blood pressure"/>
        </code>
        <valueQuantity>
            <value value="144"/>
            <unit value="mmHg"/>
            <system value="http://unitsofmeasure.org" />
            <code value="mm[Hg]"/>
        </valueQuantity>
    </component>

    <component>
        <code>
            <coding>
                <system value="http://loinc.org"/>
                <code value="8462-4"/>
                <display value="Diastolic blood pressure"/>
            </coding>
            <text value="Diastolic blood pressure"/>
        </code>
        <valueQuantity>
            <value value="91"/>
            <unit value="mmHg"/>
            <system value="http://unitsofmeasure.org" />
            <code value="mm[Hg]"/>
        </valueQuantity>
    </component>

  </Observation>
  
  </resource>
  <request>
    <method value="POST"/>
    <url value="Observation/131-bp"/>
  </request>
</entry>
<entry>
  <resource>
    
    
  <Observation>
  <id value="131-systolic"/>
    <text>
      <status value="generated"/>
      <div xmlns="http://www.w3.org/1999/xhtml">1997-04-25: Systolic blood pressure = 144 mm[Hg]</div>
    </text>
    <code>
      <coding>
        <system value="http://loinc.org"/>
        <code value="8480-6"/>
        <display value="Systolic blood pressure"/>
      </coding>
      <text value="Systolic blood pressure"/>
    </code>
    <valueQuantity>
      <value value="144.0"/>
      <unit value="mm[Hg]"/>
      <system value="http://unitsofmeasure.org" />
      <code value="mm[Hg]"/>
    </valueQuantity>
    
    <effectiveDateTime value="1997-04-25"/>
    <status value="final"/>
    <subject>
      <reference value="Patient/981968"/>
    </subject>
  </Observation>
  
  </resource>
  <request>
    <method value="POST"/>
    <url value="Observation/131-systolic"/>
  </request>
</entry>
<entry>
  <resource>
    
    
  <Observation>
  <id value="131-diastolic"/>
    <text>
      <status value="generated"/>
      <div xmlns="http://www.w3.org/1999/xhtml">1997-04-25: Diastolic blood pressure = 91 mm[Hg]</div>
    </text>
    <code>
      <coding>
        <system value="http://loinc.org"/>
        <code value="8462-4"/>
        <display value="Diastolic blood pressure"/>
      </coding>
      <text value="Diastolic blood pressure"/>
    </code>
    <valueQuantity>
      <value value="91.0"/>
      <unit value="mm[Hg]"/>
      <system value="http://unitsofmeasure.org" />
      <code value="mm[Hg]"/>
    </valueQuantity>
    
    <effectiveDateTime value="1997-04-25"/>
    <status value="final"/>
    <subject>
      <reference value="Patient/981968"/>
    </subject>
  </Observation>
  
  </resource>
  <request>
    <method value="POST"/>
    <url value="Observation/131-diastolic"/>
  </request>
</entry>
  <entry>
  <resource>
    
    
  <Observation>
    <id value="132-bp"/>
    <text>
      <status value="generated"/>
      <div xmlns="http://www.w3.org/1999/xhtml">1997-04-28: Blood pressure 165/109 mmHg</div>
    </text>
    <code>
      <coding>
        <system value="http://loinc.org"/>
        <code value="55284-4"/>
        <display value="Blood pressure systolic and diastolic"/>
      </coding>
      <text value="Blood pressure systolic and diastolic"/>
    </code>
    <effectiveDateTime value="1997-04-28"/>
    <status value="final"/>
    <subject>
      <reference value="Patient/981968"/>
    </subject>
    <encounter>
      <reference value="Encounter/132"/>
    </encounter>
    

    <component>
        <code>
            <coding>
                <system value="http://loinc.org"/>
                <code value="8480-6"/>
                <display value="Systolic blood pressure"/>
            </coding>
            <text value="Systolic blood pressure"/>
        </code>
        <valueQuantity>
            <value value="165"/>
            <unit value="mmHg"/>
            <system value="http://unitsofmeasure.org" />
            <code value="mm[Hg]"/>
        </valueQuantity>
    </component>

    <component>
        <code>
            <coding>
                <system value="http://loinc.org"/>
                <code value="8462-4"/>
                <display value="Diastolic blood pressure"/>
            </coding>
            <text value="Diastolic blood pressure"/>
        </code>
        <valueQuantity>
            <value value="109"/>
            <unit value="mmHg"/>
            <system value="http://unitsofmeasure.org" />
            <code value="mm[Hg]"/>
        </valueQuantity>
    </component>

  </Observation>
  
  </resource>
  <request>
    <method value="POST"/>
    <url value="Observation/132-bp"/>
  </request>
</entry>
<entry>
  <resource>
    
    
  <Observation>
  <id value="132-systolic"/>
    <text>
      <status value="generated"/>
      <div xmlns="http://www.w3.org/1999/xhtml">1997-04-28: Systolic blood pressure = 165 mm[Hg]</div>
    </text>
    <code>
      <coding>
        <system value="http://loinc.org"/>
        <code value="8480-6"/>
        <display value="Systolic blood pressure"/>
      </coding>
      <text value="Systolic blood pressure"/>
    </code>
    <valueQuantity>
      <value value="165.0"/>
      <unit value="mm[Hg]"/>
      <system value="http://unitsofmeasure.org" />
      <code value="mm[Hg]"/>
    </valueQuantity>
    
    <effectiveDateTime value="1997-04-28"/>
    <status value="final"/>
    <subject>
      <reference value="Patient/981968"/>
    </subject>
  </Observation>
  
  </resource>
  <request>
    <method value="POST"/>
    <url value="Observation/132-systolic"/>
  </request>
</entry>
<entry>
  <resource>
    
    
  <Observation>
  <id value="132-diastolic"/>
    <text>
      <status value="generated"/>
      <div xmlns="http://www.w3.org/1999/xhtml">1997-04-28: Diastolic blood pressure = 109 mm[Hg]</div>
    </text>
    <code>
      <coding>
        <system value="http://loinc.org"/>
        <code value="8462-4"/>
        <display value="Diastolic blood pressure"/>
      </coding>
      <text value="Diastolic blood pressure"/>
    </code>
    <valueQuantity>
      <value value="109.0"/>
      <unit value="mm[Hg]"/>
      <system value="http://unitsofmeasure.org" />
      <code value="mm[Hg]"/>
    </valueQuantity>
    
    <effectiveDateTime value="1997-04-28"/>
    <status value="final"/>
    <subject>
      <reference value="Patient/981968"/>
    </subject>
  </Observation>
  
  </resource>
  <request>
    <method value="POST"/>
    <url value="Observation/132-diastolic"/>
  </request>
</entry>
  <entry>
  <resource>
    
    
  <Observation>
    <id value="133-bp"/>
    <text>
      <status value="generated"/>
      <div xmlns="http://www.w3.org/1999/xhtml">1998-12-03: Blood pressure 127/82 mmHg</div>
    </text>
    <code>
      <coding>
        <system value="http://loinc.org"/>
        <code value="55284-4"/>
        <display value="Blood pressure systolic and diastolic"/>
      </coding>
      <text value="Blood pressure systolic and diastolic"/>
    </code>
    <effectiveDateTime value="1998-12-03"/>
    <status value="final"/>
    <subject>
      <reference value="Patient/981968"/>
    </subject>
    <encounter>
      <reference value="Encounter/133"/>
    </encounter>
    

    <component>
        <code>
            <coding>
                <system value="http://loinc.org"/>
                <code value="8480-6"/>
                <display value="Systolic blood pressure"/>
            </coding>
            <text value="Systolic blood pressure"/>
        </code>
        <valueQuantity>
            <value value="127"/>
            <unit value="mmHg"/>
            <system value="http://unitsofmeasure.org" />
            <code value="mm[Hg]"/>
        </valueQuantity>
    </component>

    <component>
        <code>
            <coding>
                <system value="http://loinc.org"/>
                <code value="8462-4"/>
                <display value="Diastolic blood pressure"/>
            </coding>
            <text value="Diastolic blood pressure"/>
        </code>
        <valueQuantity>
            <value value="82"/>
            <unit value="mmHg"/>
            <system value="http://unitsofmeasure.org" />
            <code value="mm[Hg]"/>
        </valueQuantity>
    </component>

  </Observation>
  
  </resource>
  <request>
    <method value="POST"/>
    <url value="Observation/133-bp"/>
  </request>
</entry>
<entry>
  <resource>
    
    
  <Observation>
  <id value="133-systolic"/>
    <text>
      <status value="generated"/>
      <div xmlns="http://www.w3.org/1999/xhtml">1998-12-03: Systolic blood pressure = 127 mm[Hg]</div>
    </text>
    <code>
      <coding>
        <system value="http://loinc.org"/>
        <code value="8480-6"/>
        <display value="Systolic blood pressure"/>
      </coding>
      <text value="Systolic blood pressure"/>
    </code>
    <valueQuantity>
      <value value="127.0"/>
      <unit value="mm[Hg]"/>
      <system value="http://unitsofmeasure.org" />
      <code value="mm[Hg]"/>
    </valueQuantity>
    
    <effectiveDateTime value="1998-12-03"/>
    <status value="final"/>
    <subject>
      <reference value="Patient/981968"/>
    </subject>
  </Observation>
  
  </resource>
  <request>
    <method value="POST"/>
    <url value="Observation/133-systolic"/>
  </request>
</entry>
<entry>
  <resource>
    
    
  <Observation>
  <id value="133-diastolic"/>
    <text>
      <status value="generated"/>
      <div xmlns="http://www.w3.org/1999/xhtml">1998-12-03: Diastolic blood pressure = 82 mm[Hg]</div>
    </text>
    <code>
      <coding>
        <system value="http://loinc.org"/>
        <code value="8462-4"/>
        <display value="Diastolic blood pressure"/>
      </coding>
      <text value="Diastolic blood pressure"/>
    </code>
    <valueQuantity>
      <value value="82.0"/>
      <unit value="mm[Hg]"/>
      <system value="http://unitsofmeasure.org" />
      <code value="mm[Hg]"/>
    </valueQuantity>
    
    <effectiveDateTime value="1998-12-03"/>
    <status value="final"/>
    <subject>
      <reference value="Patient/981968"/>
    </subject>
  </Observation>
  
  </resource>
  <request>
    <method value="POST"/>
    <url value="Observation/133-diastolic"/>
  </request>
</entry>
  <entry>
  <resource>
    
    
  <Observation>
    <id value="134-bp"/>
    <text>
      <status value="generated"/>
      <div xmlns="http://www.w3.org/1999/xhtml">2001-01-18: Blood pressure 122/77 mmHg</div>
    </text>
    <code>
      <coding>
        <system value="http://loinc.org"/>
        <code value="55284-4"/>
        <display value="Blood pressure systolic and diastolic"/>
      </coding>
      <text value="Blood pressure systolic and diastolic"/>
    </code>
    <effectiveDateTime value="2001-01-18"/>
    <status value="final"/>
    <subject>
      <reference value="Patient/981968"/>
    </subject>
    <encounter>
      <reference value="Encounter/134"/>
    </encounter>
    

    <component>
        <code>
            <coding>
                <system value="http://loinc.org"/>
                <code value="8480-6"/>
                <display value="Systolic blood pressure"/>
            </coding>
            <text value="Systolic blood pressure"/>
        </code>
        <valueQuantity>
            <value value="122"/>
            <unit value="mmHg"/>
            <system value="http://unitsofmeasure.org" />
            <code value="mm[Hg]"/>
        </valueQuantity>
    </component>

    <component>
        <code>
            <coding>
                <system value="http://loinc.org"/>
                <code value="8462-4"/>
                <display value="Diastolic blood pressure"/>
            </coding>
            <text value="Diastolic blood pressure"/>
        </code>
        <valueQuantity>
            <value value="77"/>
            <unit value="mmHg"/>
            <system value="http://unitsofmeasure.org" />
            <code value="mm[Hg]"/>
        </valueQuantity>
    </component>

  </Observation>
  
  </resource>
  <request>
    <method value="POST"/>
    <url value="Observation/134-bp"/>
  </request>
</entry>
<entry>
  <resource>
    
    
  <Observation>
  <id value="134-systolic"/>
    <text>
      <status value="generated"/>
      <div xmlns="http://www.w3.org/1999/xhtml">2001-01-18: Systolic blood pressure = 122 mm[Hg]</div>
    </text>
    <code>
      <coding>
        <system value="http://loinc.org"/>
        <code value="8480-6"/>
        <display value="Systolic blood pressure"/>
      </coding>
      <text value="Systolic blood pressure"/>
    </code>
    <valueQuantity>
      <value value="122.0"/>
      <unit value="mm[Hg]"/>
      <system value="http://unitsofmeasure.org" />
      <code value="mm[Hg]"/>
    </valueQuantity>
    
    <effectiveDateTime value="2001-01-18"/>
    <status value="final"/>
    <subject>
      <reference value="Patient/981968"/>
    </subject>
  </Observation>
  
  </resource>
  <request>
    <method value="POST"/>
    <url value="Observation/134-systolic"/>
  </request>
</entry>
<entry>
  <resource>
    
    
  <Observation>
  <id value="134-diastolic"/>
    <text>
      <status value="generated"/>
      <div xmlns="http://www.w3.org/1999/xhtml">2001-01-18: Diastolic blood pressure = 77 mm[Hg]</div>
    </text>
    <code>
      <coding>
        <system value="http://loinc.org"/>
        <code value="8462-4"/>
        <display value="Diastolic blood pressure"/>
      </coding>
      <text value="Diastolic blood pressure"/>
    </code>
    <valueQuantity>
      <value value="77.0"/>
      <unit value="mm[Hg]"/>
      <system value="http://unitsofmeasure.org" />
      <code value="mm[Hg]"/>
    </valueQuantity>
    
    <effectiveDateTime value="2001-01-18"/>
    <status value="final"/>
    <subject>
      <reference value="Patient/981968"/>
    </subject>
  </Observation>
  
  </resource>
  <request>
    <method value="POST"/>
    <url value="Observation/134-diastolic"/>
  </request>
</entry>
  <entry>
  <resource>
    
    
  <Observation>
    <id value="135-bp"/>
    <text>
      <status value="generated"/>
      <div xmlns="http://www.w3.org/1999/xhtml">2001-01-19: Blood pressure 127/81 mmHg</div>
    </text>
    <code>
      <coding>
        <system value="http://loinc.org"/>
        <code value="55284-4"/>
        <display value="Blood pressure systolic and diastolic"/>
      </coding>
      <text value="Blood pressure systolic and diastolic"/>
    </code>
    <effectiveDateTime value="2001-01-19"/>
    <status value="final"/>
    <subject>
      <reference value="Patient/981968"/>
    </subject>
    <encounter>
      <reference value="Encounter/135"/>
    </encounter>
    

    <component>
        <code>
            <coding>
                <system value="http://loinc.org"/>
                <code value="8480-6"/>
                <display value="Systolic blood pressure"/>
            </coding>
            <text value="Systolic blood pressure"/>
        </code>
        <valueQuantity>
            <value value="127"/>
            <unit value="mmHg"/>
            <system value="http://unitsofmeasure.org" />
            <code value="mm[Hg]"/>
        </valueQuantity>
    </component>

    <component>
        <code>
            <coding>
                <system value="http://loinc.org"/>
                <code value="8462-4"/>
                <display value="Diastolic blood pressure"/>
            </coding>
            <text value="Diastolic blood pressure"/>
        </code>
        <valueQuantity>
            <value value="81"/>
            <unit value="mmHg"/>
            <system value="http://unitsofmeasure.org" />
            <code value="mm[Hg]"/>
        </valueQuantity>
    </component>

  </Observation>
  
  </resource>
  <request>
    <method value="POST"/>
    <url value="Observation/135-bp"/>
  </request>
</entry>
<entry>
  <resource>
    
    
  <Observation>
  <id value="135-systolic"/>
    <text>
      <status value="generated"/>
      <div xmlns="http://www.w3.org/1999/xhtml">2001-01-19: Systolic blood pressure = 127 mm[Hg]</div>
    </text>
    <code>
      <coding>
        <system value="http://loinc.org"/>
        <code value="8480-6"/>
        <display value="Systolic blood pressure"/>
      </coding>
      <text value="Systolic blood pressure"/>
    </code>
    <valueQuantity>
      <value value="127.0"/>
      <unit value="mm[Hg]"/>
      <system value="http://unitsofmeasure.org" />
      <code value="mm[Hg]"/>
    </valueQuantity>
    
    <effectiveDateTime value="2001-01-19"/>
    <status value="final"/>
    <subject>
      <reference value="Patient/981968"/>
    </subject>
  </Observation>
  
  </resource>
  <request>
    <method value="POST"/>
    <url value="Observation/135-systolic"/>
  </request>
</entry>
<entry>
  <resource>
    
    
  <Observation>
  <id value="135-diastolic"/>
    <text>
      <status value="generated"/>
      <div xmlns="http://www.w3.org/1999/xhtml">2001-01-19: Diastolic blood pressure = 81 mm[Hg]</div>
    </text>
    <code>
      <coding>
        <system value="http://loinc.org"/>
        <code value="8462-4"/>
        <display value="Diastolic blood pressure"/>
      </coding>
      <text value="Diastolic blood pressure"/>
    </code>
    <valueQuantity>
      <value value="81.0"/>
      <unit value="mm[Hg]"/>
      <system value="http://unitsofmeasure.org" />
      <code value="mm[Hg]"/>
    </valueQuantity>
    
    <effectiveDateTime value="2001-01-19"/>
    <status value="final"/>
    <subject>
      <reference value="Patient/981968"/>
    </subject>
  </Observation>
  
  </resource>
  <request>
    <method value="POST"/>
    <url value="Observation/135-diastolic"/>
  </request>
</entry>
  <entry>
  <resource>
    
    
  <Observation>
    <id value="136-bp"/>
    <text>
      <status value="generated"/>
      <div xmlns="http://www.w3.org/1999/xhtml">2005-02-28: Blood pressure 131/83 mmHg</div>
    </text>
    <code>
      <coding>
        <system value="http://loinc.org"/>
        <code value="55284-4"/>
        <display value="Blood pressure systolic and diastolic"/>
      </coding>
      <text value="Blood pressure systolic and diastolic"/>
    </code>
    <effectiveDateTime value="2005-02-28"/>
    <status value="final"/>
    <subject>
      <reference value="Patient/981968"/>
    </subject>
    <encounter>
      <reference value="Encounter/136"/>
    </encounter>
    

    <component>
        <code>
            <coding>
                <system value="http://loinc.org"/>
                <code value="8480-6"/>
                <display value="Systolic blood pressure"/>
            </coding>
            <text value="Systolic blood pressure"/>
        </code>
        <valueQuantity>
            <value value="131"/>
            <unit value="mmHg"/>
            <system value="http://unitsofmeasure.org" />
            <code value="mm[Hg]"/>
        </valueQuantity>
    </component>

    <component>
        <code>
            <coding>
                <system value="http://loinc.org"/>
                <code value="8462-4"/>
                <display value="Diastolic blood pressure"/>
            </coding>
            <text value="Diastolic blood pressure"/>
        </code>
        <valueQuantity>
            <value value="83"/>
            <unit value="mmHg"/>
            <system value="http://unitsofmeasure.org" />
            <code value="mm[Hg]"/>
        </valueQuantity>
    </component>

  </Observation>
  
  </resource>
  <request>
    <method value="POST"/>
    <url value="Observation/136-bp"/>
  </request>
</entry>
<entry>
  <resource>
    
    
  <Observation>
  <id value="136-systolic"/>
    <text>
      <status value="generated"/>
      <div xmlns="http://www.w3.org/1999/xhtml">2005-02-28: Systolic blood pressure = 131 mm[Hg]</div>
    </text>
    <code>
      <coding>
        <system value="http://loinc.org"/>
        <code value="8480-6"/>
        <display value="Systolic blood pressure"/>
      </coding>
      <text value="Systolic blood pressure"/>
    </code>
    <valueQuantity>
      <value value="131.0"/>
      <unit value="mm[Hg]"/>
      <system value="http://unitsofmeasure.org" />
      <code value="mm[Hg]"/>
    </valueQuantity>
    
    <effectiveDateTime value="2005-02-28"/>
    <status value="final"/>
    <subject>
      <reference value="Patient/981968"/>
    </subject>
  </Observation>
  
  </resource>
  <request>
    <method value="POST"/>
    <url value="Observation/136-systolic"/>
  </request>
</entry>
<entry>
  <resource>
    
    
  <Observation>
  <id value="136-diastolic"/>
    <text>
      <status value="generated"/>
      <div xmlns="http://www.w3.org/1999/xhtml">2005-02-28: Diastolic blood pressure = 83 mm[Hg]</div>
    </text>
    <code>
      <coding>
        <system value="http://loinc.org"/>
        <code value="8462-4"/>
        <display value="Diastolic blood pressure"/>
      </coding>
      <text value="Diastolic blood pressure"/>
    </code>
    <valueQuantity>
      <value value="83.0"/>
      <unit value="mm[Hg]"/>
      <system value="http://unitsofmeasure.org" />
      <code value="mm[Hg]"/>
    </valueQuantity>
    
    <effectiveDateTime value="2005-02-28"/>
    <status value="final"/>
    <subject>
      <reference value="Patient/981968"/>
    </subject>
  </Observation>
  
  </resource>
  <request>
    <method value="POST"/>
    <url value="Observation/136-diastolic"/>
  </request>
</entry>
  <entry>
  <resource>
    
    
  <Observation>
    <id value="137-bp"/>
    <text>
      <status value="generated"/>
      <div xmlns="http://www.w3.org/1999/xhtml">2005-04-29: Blood pressure 172/111 mmHg</div>
    </text>
    <code>
      <coding>
        <system value="http://loinc.org"/>
        <code value="55284-4"/>
        <display value="Blood pressure systolic and diastolic"/>
      </coding>
      <text value="Blood pressure systolic and diastolic"/>
    </code>
    <effectiveDateTime value="2005-04-29"/>
    <status value="final"/>
    <subject>
      <reference value="Patient/981968"/>
    </subject>
    <encounter>
      <reference value="Encounter/137"/>
    </encounter>
    

    <component>
        <code>
            <coding>
                <system value="http://loinc.org"/>
                <code value="8480-6"/>
                <display value="Systolic blood pressure"/>
            </coding>
            <text value="Systolic blood pressure"/>
        </code>
        <valueQuantity>
            <value value="172"/>
            <unit value="mmHg"/>
            <system value="http://unitsofmeasure.org" />
            <code value="mm[Hg]"/>
        </valueQuantity>
    </component>

    <component>
        <code>
            <coding>
                <system value="http://loinc.org"/>
                <code value="8462-4"/>
                <display value="Diastolic blood pressure"/>
            </coding>
            <text value="Diastolic blood pressure"/>
        </code>
        <valueQuantity>
            <value value="111"/>
            <unit value="mmHg"/>
            <system value="http://unitsofmeasure.org" />
            <code value="mm[Hg]"/>
        </valueQuantity>
    </component>

  </Observation>
  
  </resource>
  <request>
    <method value="POST"/>
    <url value="Observation/137-bp"/>
  </request>
</entry>
<entry>
  <resource>
    
    
  <Observation>
  <id value="137-systolic"/>
    <text>
      <status value="generated"/>
      <div xmlns="http://www.w3.org/1999/xhtml">2005-04-29: Systolic blood pressure = 172 mm[Hg]</div>
    </text>
    <code>
      <coding>
        <system value="http://loinc.org"/>
        <code value="8480-6"/>
        <display value="Systolic blood pressure"/>
      </coding>
      <text value="Systolic blood pressure"/>
    </code>
    <valueQuantity>
      <value value="172.0"/>
      <unit value="mm[Hg]"/>
      <system value="http://unitsofmeasure.org" />
      <code value="mm[Hg]"/>
    </valueQuantity>
    
    <effectiveDateTime value="2005-04-29"/>
    <status value="final"/>
    <subject>
      <reference value="Patient/981968"/>
    </subject>
  </Observation>
  
  </resource>
  <request>
    <method value="POST"/>
    <url value="Observation/137-systolic"/>
  </request>
</entry>
<entry>
  <resource>
    
    
  <Observation>
  <id value="137-diastolic"/>
    <text>
      <status value="generated"/>
      <div xmlns="http://www.w3.org/1999/xhtml">2005-04-29: Diastolic blood pressure = 111 mm[Hg]</div>
    </text>
    <code>
      <coding>
        <system value="http://loinc.org"/>
        <code value="8462-4"/>
        <display value="Diastolic blood pressure"/>
      </coding>
      <text value="Diastolic blood pressure"/>
    </code>
    <valueQuantity>
      <value value="111.0"/>
      <unit value="mm[Hg]"/>
      <system value="http://unitsofmeasure.org" />
      <code value="mm[Hg]"/>
    </valueQuantity>
    
    <effectiveDateTime value="2005-04-29"/>
    <status value="final"/>
    <subject>
      <reference value="Patient/981968"/>
    </subject>
  </Observation>
  
  </resource>
  <request>
    <method value="POST"/>
    <url value="Observation/137-diastolic"/>
  </request>
</entry>
  <entry>
  <resource>
    
    
  <Observation>
    <id value="138-bp"/>
    <text>
      <status value="generated"/>
      <div xmlns="http://www.w3.org/1999/xhtml">2005-05-02: Blood pressure 128/81 mmHg</div>
    </text>
    <code>
      <coding>
        <system value="http://loinc.org"/>
        <code value="55284-4"/>
        <display value="Blood pressure systolic and diastolic"/>
      </coding>
      <text value="Blood pressure systolic and diastolic"/>
    </code>
    <effectiveDateTime value="2005-05-02"/>
    <status value="final"/>
    <subject>
      <reference value="Patient/981968"/>
    </subject>
    <encounter>
      <reference value="Encounter/138"/>
    </encounter>
    

    <component>
        <code>
            <coding>
                <system value="http://loinc.org"/>
                <code value="8480-6"/>
                <display value="Systolic blood pressure"/>
            </coding>
            <text value="Systolic blood pressure"/>
        </code>
        <valueQuantity>
            <value value="128"/>
            <unit value="mmHg"/>
            <system value="http://unitsofmeasure.org" />
            <code value="mm[Hg]"/>
        </valueQuantity>
    </component>

    <component>
        <code>
            <coding>
                <system value="http://loinc.org"/>
                <code value="8462-4"/>
                <display value="Diastolic blood pressure"/>
            </coding>
            <text value="Diastolic blood pressure"/>
        </code>
        <valueQuantity>
            <value value="81"/>
            <unit value="mmHg"/>
            <system value="http://unitsofmeasure.org" />
            <code value="mm[Hg]"/>
        </valueQuantity>
    </component>

  </Observation>
  
  </resource>
  <request>
    <method value="POST"/>
    <url value="Observation/138-bp"/>
  </request>
</entry>
<entry>
  <resource>
    
    
  <Observation>
  <id value="138-systolic"/>
    <text>
      <status value="generated"/>
      <div xmlns="http://www.w3.org/1999/xhtml">2005-05-02: Systolic blood pressure = 128 mm[Hg]</div>
    </text>
    <code>
      <coding>
        <system value="http://loinc.org"/>
        <code value="8480-6"/>
        <display value="Systolic blood pressure"/>
      </coding>
      <text value="Systolic blood pressure"/>
    </code>
    <valueQuantity>
      <value value="128.0"/>
      <unit value="mm[Hg]"/>
      <system value="http://unitsofmeasure.org" />
      <code value="mm[Hg]"/>
    </valueQuantity>
    
    <effectiveDateTime value="2005-05-02"/>
    <status value="final"/>
    <subject>
      <reference value="Patient/981968"/>
    </subject>
  </Observation>
  
  </resource>
  <request>
    <method value="POST"/>
    <url value="Observation/138-systolic"/>
  </request>
</entry>
<entry>
  <resource>
    
    
  <Observation>
  <id value="138-diastolic"/>
    <text>
      <status value="generated"/>
      <div xmlns="http://www.w3.org/1999/xhtml">2005-05-02: Diastolic blood pressure = 81 mm[Hg]</div>
    </text>
    <code>
      <coding>
        <system value="http://loinc.org"/>
        <code value="8462-4"/>
        <display value="Diastolic blood pressure"/>
      </coding>
      <text value="Diastolic blood pressure"/>
    </code>
    <valueQuantity>
      <value value="81.0"/>
      <unit value="mm[Hg]"/>
      <system value="http://unitsofmeasure.org" />
      <code value="mm[Hg]"/>
    </valueQuantity>
    
    <effectiveDateTime value="2005-05-02"/>
    <status value="final"/>
    <subject>
      <reference value="Patient/981968"/>
    </subject>
  </Observation>
  
  </resource>
  <request>
    <method value="POST"/>
    <url value="Observation/138-diastolic"/>
  </request>
</entry>
  <entry>
  <resource>
    
    
  <Observation>
    <id value="139-bp"/>
    <text>
      <status value="generated"/>
      <div xmlns="http://www.w3.org/1999/xhtml">2005-05-25: Blood pressure 137/87 mmHg</div>
    </text>
    <code>
      <coding>
        <system value="http://loinc.org"/>
        <code value="55284-4"/>
        <display value="Blood pressure systolic and diastolic"/>
      </coding>
      <text value="Blood pressure systolic and diastolic"/>
    </code>
    <effectiveDateTime value="2005-05-25"/>
    <status value="final"/>
    <subject>
      <reference value="Patient/981968"/>
    </subject>
    <encounter>
      <reference value="Encounter/139"/>
    </encounter>
    

    <component>
        <code>
            <coding>
                <system value="http://loinc.org"/>
                <code value="8480-6"/>
                <display value="Systolic blood pressure"/>
            </coding>
            <text value="Systolic blood pressure"/>
        </code>
        <valueQuantity>
            <value value="137"/>
            <unit value="mmHg"/>
            <system value="http://unitsofmeasure.org" />
            <code value="mm[Hg]"/>
        </valueQuantity>
    </component>

    <component>
        <code>
            <coding>
                <system value="http://loinc.org"/>
                <code value="8462-4"/>
                <display value="Diastolic blood pressure"/>
            </coding>
            <text value="Diastolic blood pressure"/>
        </code>
        <valueQuantity>
            <value value="87"/>
            <unit value="mmHg"/>
            <system value="http://unitsofmeasure.org" />
            <code value="mm[Hg]"/>
        </valueQuantity>
    </component>

  </Observation>
  
  </resource>
  <request>
    <method value="POST"/>
    <url value="Observation/139-bp"/>
  </request>
</entry>
<entry>
  <resource>
    
    
  <Observation>
  <id value="139-systolic"/>
    <text>
      <status value="generated"/>
      <div xmlns="http://www.w3.org/1999/xhtml">2005-05-25: Systolic blood pressure = 137 mm[Hg]</div>
    </text>
    <code>
      <coding>
        <system value="http://loinc.org"/>
        <code value="8480-6"/>
        <display value="Systolic blood pressure"/>
      </coding>
      <text value="Systolic blood pressure"/>
    </code>
    <valueQuantity>
      <value value="137.0"/>
      <unit value="mm[Hg]"/>
      <system value="http://unitsofmeasure.org" />
      <code value="mm[Hg]"/>
    </valueQuantity>
    
    <effectiveDateTime value="2005-05-25"/>
    <status value="final"/>
    <subject>
      <reference value="Patient/981968"/>
    </subject>
  </Observation>
  
  </resource>
  <request>
    <method value="POST"/>
    <url value="Observation/139-systolic"/>
  </request>
</entry>
<entry>
  <resource>
    
    
  <Observation>
  <id value="139-diastolic"/>
    <text>
      <status value="generated"/>
      <div xmlns="http://www.w3.org/1999/xhtml">2005-05-25: Diastolic blood pressure = 87 mm[Hg]</div>
    </text>
    <code>
      <coding>
        <system value="http://loinc.org"/>
        <code value="8462-4"/>
        <display value="Diastolic blood pressure"/>
      </coding>
      <text value="Diastolic blood pressure"/>
    </code>
    <valueQuantity>
      <value value="87.0"/>
      <unit value="mm[Hg]"/>
      <system value="http://unitsofmeasure.org" />
      <code value="mm[Hg]"/>
    </valueQuantity>
    
    <effectiveDateTime value="2005-05-25"/>
    <status value="final"/>
    <subject>
      <reference value="Patient/981968"/>
    </subject>
  </Observation>
  
  </resource>
  <request>
    <method value="POST"/>
    <url value="Observation/139-diastolic"/>
  </request>
</entry>
  <entry>
  <resource>
    
    
  <Observation>
    <id value="140-bp"/>
    <text>
      <status value="generated"/>
      <div xmlns="http://www.w3.org/1999/xhtml">2008-11-24: Blood pressure 137/86 mmHg</div>
    </text>
    <code>
      <coding>
        <system value="http://loinc.org"/>
        <code value="55284-4"/>
        <display value="Blood pressure systolic and diastolic"/>
      </coding>
      <text value="Blood pressure systolic and diastolic"/>
    </code>
    <effectiveDateTime value="2008-11-24"/>
    <status value="final"/>
    <subject>
      <reference value="Patient/981968"/>
    </subject>
    <encounter>
      <reference value="Encounter/140"/>
    </encounter>
    

    <component>
        <code>
            <coding>
                <system value="http://loinc.org"/>
                <code value="8480-6"/>
                <display value="Systolic blood pressure"/>
            </coding>
            <text value="Systolic blood pressure"/>
        </code>
        <valueQuantity>
            <value value="137"/>
            <unit value="mmHg"/>
            <system value="http://unitsofmeasure.org" />
            <code value="mm[Hg]"/>
        </valueQuantity>
    </component>

    <component>
        <code>
            <coding>
                <system value="http://loinc.org"/>
                <code value="8462-4"/>
                <display value="Diastolic blood pressure"/>
            </coding>
            <text value="Diastolic blood pressure"/>
        </code>
        <valueQuantity>
            <value value="86"/>
            <unit value="mmHg"/>
            <system value="http://unitsofmeasure.org" />
            <code value="mm[Hg]"/>
        </valueQuantity>
    </component>

  </Observation>
  
  </resource>
  <request>
    <method value="POST"/>
    <url value="Observation/140-bp"/>
  </request>
</entry>
<entry>
  <resource>
    
    
  <Observation>
  <id value="140-systolic"/>
    <text>
      <status value="generated"/>
      <div xmlns="http://www.w3.org/1999/xhtml">2008-11-24: Systolic blood pressure = 137 mm[Hg]</div>
    </text>
    <code>
      <coding>
        <system value="http://loinc.org"/>
        <code value="8480-6"/>
        <display value="Systolic blood pressure"/>
      </coding>
      <text value="Systolic blood pressure"/>
    </code>
    <valueQuantity>
      <value value="137.0"/>
      <unit value="mm[Hg]"/>
      <system value="http://unitsofmeasure.org" />
      <code value="mm[Hg]"/>
    </valueQuantity>
    
    <effectiveDateTime value="2008-11-24"/>
    <status value="final"/>
    <subject>
      <reference value="Patient/981968"/>
    </subject>
  </Observation>
  
  </resource>
  <request>
    <method value="POST"/>
    <url value="Observation/140-systolic"/>
  </request>
</entry>
<entry>
  <resource>
    
    
  <Observation>
  <id value="140-diastolic"/>
    <text>
      <status value="generated"/>
      <div xmlns="http://www.w3.org/1999/xhtml">2008-11-24: Diastolic blood pressure = 86 mm[Hg]</div>
    </text>
    <code>
      <coding>
        <system value="http://loinc.org"/>
        <code value="8462-4"/>
        <display value="Diastolic blood pressure"/>
      </coding>
      <text value="Diastolic blood pressure"/>
    </code>
    <valueQuantity>
      <value value="86.0"/>
      <unit value="mm[Hg]"/>
      <system value="http://unitsofmeasure.org" />
      <code value="mm[Hg]"/>
    </valueQuantity>
    
    <effectiveDateTime value="2008-11-24"/>
    <status value="final"/>
    <subject>
      <reference value="Patient/981968"/>
    </subject>
  </Observation>
  
  </resource>
  <request>
    <method value="POST"/>
    <url value="Observation/140-diastolic"/>
  </request>
</entry>
  <entry>
  <resource>
    
    
  <Observation>
    <id value="141-bp"/>
    <text>
      <status value="generated"/>
      <div xmlns="http://www.w3.org/1999/xhtml">2008-11-25: Blood pressure 123/77 mmHg</div>
    </text>
    <code>
      <coding>
        <system value="http://loinc.org"/>
        <code value="55284-4"/>
        <display value="Blood pressure systolic and diastolic"/>
      </coding>
      <text value="Blood pressure systolic and diastolic"/>
    </code>
    <effectiveDateTime value="2008-11-25"/>
    <status value="final"/>
    <subject>
      <reference value="Patient/981968"/>
    </subject>
    <encounter>
      <reference value="Encounter/141"/>
    </encounter>
    

    <component>
        <code>
            <coding>
                <system value="http://loinc.org"/>
                <code value="8480-6"/>
                <display value="Systolic blood pressure"/>
            </coding>
            <text value="Systolic blood pressure"/>
        </code>
        <valueQuantity>
            <value value="123"/>
            <unit value="mmHg"/>
            <system value="http://unitsofmeasure.org" />
            <code value="mm[Hg]"/>
        </valueQuantity>
    </component>

    <component>
        <code>
            <coding>
                <system value="http://loinc.org"/>
                <code value="8462-4"/>
                <display value="Diastolic blood pressure"/>
            </coding>
            <text value="Diastolic blood pressure"/>
        </code>
        <valueQuantity>
            <value value="77"/>
            <unit value="mmHg"/>
            <system value="http://unitsofmeasure.org" />
            <code value="mm[Hg]"/>
        </valueQuantity>
    </component>

  </Observation>
  
  </resource>
  <request>
    <method value="POST"/>
    <url value="Observation/141-bp"/>
  </request>
</entry>
<entry>
  <resource>
    
    
  <Observation>
  <id value="141-systolic"/>
    <text>
      <status value="generated"/>
      <div xmlns="http://www.w3.org/1999/xhtml">2008-11-25: Systolic blood pressure = 123 mm[Hg]</div>
    </text>
    <code>
      <coding>
        <system value="http://loinc.org"/>
        <code value="8480-6"/>
        <display value="Systolic blood pressure"/>
      </coding>
      <text value="Systolic blood pressure"/>
    </code>
    <valueQuantity>
      <value value="123.0"/>
      <unit value="mm[Hg]"/>
      <system value="http://unitsofmeasure.org" />
      <code value="mm[Hg]"/>
    </valueQuantity>
    
    <effectiveDateTime value="2008-11-25"/>
    <status value="final"/>
    <subject>
      <reference value="Patient/981968"/>
    </subject>
  </Observation>
  
  </resource>
  <request>
    <method value="POST"/>
    <url value="Observation/141-systolic"/>
  </request>
</entry>
<entry>
  <resource>
    
    
  <Observation>
  <id value="141-diastolic"/>
    <text>
      <status value="generated"/>
      <div xmlns="http://www.w3.org/1999/xhtml">2008-11-25: Diastolic blood pressure = 77 mm[Hg]</div>
    </text>
    <code>
      <coding>
        <system value="http://loinc.org"/>
        <code value="8462-4"/>
        <display value="Diastolic blood pressure"/>
      </coding>
      <text value="Diastolic blood pressure"/>
    </code>
    <valueQuantity>
      <value value="77.0"/>
      <unit value="mm[Hg]"/>
      <system value="http://unitsofmeasure.org" />
      <code value="mm[Hg]"/>
    </valueQuantity>
    
    <effectiveDateTime value="2008-11-25"/>
    <status value="final"/>
    <subject>
      <reference value="Patient/981968"/>
    </subject>
  </Observation>
  
  </resource>
  <request>
    <method value="POST"/>
    <url value="Observation/141-diastolic"/>
  </request>
</entry>
  <entry>
  <resource>
    
    
  <Observation>
    <id value="142-bp"/>
    <text>
      <status value="generated"/>
      <div xmlns="http://www.w3.org/1999/xhtml">2008-11-28: Blood pressure 172/109 mmHg</div>
    </text>
    <code>
      <coding>
        <system value="http://loinc.org"/>
        <code value="55284-4"/>
        <display value="Blood pressure systolic and diastolic"/>
      </coding>
      <text value="Blood pressure systolic and diastolic"/>
    </code>
    <effectiveDateTime value="2008-11-28"/>
    <status value="final"/>
    <subject>
      <reference value="Patient/981968"/>
    </subject>
    <encounter>
      <reference value="Encounter/142"/>
    </encounter>
    

    <component>
        <code>
            <coding>
                <system value="http://loinc.org"/>
                <code value="8480-6"/>
                <display value="Systolic blood pressure"/>
            </coding>
            <text value="Systolic blood pressure"/>
        </code>
        <valueQuantity>
            <value value="172"/>
            <unit value="mmHg"/>
            <system value="http://unitsofmeasure.org" />
            <code value="mm[Hg]"/>
        </valueQuantity>
    </component>

    <component>
        <code>
            <coding>
                <system value="http://loinc.org"/>
                <code value="8462-4"/>
                <display value="Diastolic blood pressure"/>
            </coding>
            <text value="Diastolic blood pressure"/>
        </code>
        <valueQuantity>
            <value value="109"/>
            <unit value="mmHg"/>
            <system value="http://unitsofmeasure.org" />
            <code value="mm[Hg]"/>
        </valueQuantity>
    </component>

  </Observation>
  
  </resource>
  <request>
    <method value="POST"/>
    <url value="Observation/142-bp"/>
  </request>
</entry>
<entry>
  <resource>
    
    
  <Observation>
  <id value="142-systolic"/>
    <text>
      <status value="generated"/>
      <div xmlns="http://www.w3.org/1999/xhtml">2008-11-28: Systolic blood pressure = 172 mm[Hg]</div>
    </text>
    <code>
      <coding>
        <system value="http://loinc.org"/>
        <code value="8480-6"/>
        <display value="Systolic blood pressure"/>
      </coding>
      <text value="Systolic blood pressure"/>
    </code>
    <valueQuantity>
      <value value="172.0"/>
      <unit value="mm[Hg]"/>
      <system value="http://unitsofmeasure.org" />
      <code value="mm[Hg]"/>
    </valueQuantity>
    
    <effectiveDateTime value="2008-11-28"/>
    <status value="final"/>
    <subject>
      <reference value="Patient/981968"/>
    </subject>
  </Observation>
  
  </resource>
  <request>
    <method value="POST"/>
    <url value="Observation/142-systolic"/>
  </request>
</entry>
<entry>
  <resource>
    
    
  <Observation>
  <id value="142-diastolic"/>
    <text>
      <status value="generated"/>
      <div xmlns="http://www.w3.org/1999/xhtml">2008-11-28: Diastolic blood pressure = 109 mm[Hg]</div>
    </text>
    <code>
      <coding>
        <system value="http://loinc.org"/>
        <code value="8462-4"/>
        <display value="Diastolic blood pressure"/>
      </coding>
      <text value="Diastolic blood pressure"/>
    </code>
    <valueQuantity>
      <value value="109.0"/>
      <unit value="mm[Hg]"/>
      <system value="http://unitsofmeasure.org" />
      <code value="mm[Hg]"/>
    </valueQuantity>
    
    <effectiveDateTime value="2008-11-28"/>
    <status value="final"/>
    <subject>
      <reference value="Patient/981968"/>
    </subject>
  </Observation>
  
  </resource>
  <request>
    <method value="POST"/>
    <url value="Observation/142-diastolic"/>
  </request>
</entry>
  <entry>
  <resource>
    
    
  <Observation>
    <id value="143-bp"/>
    <text>
      <status value="generated"/>
      <div xmlns="http://www.w3.org/1999/xhtml">2009-05-11: Blood pressure 162/102 mmHg</div>
    </text>
    <code>
      <coding>
        <system value="http://loinc.org"/>
        <code value="55284-4"/>
        <display value="Blood pressure systolic and diastolic"/>
      </coding>
      <text value="Blood pressure systolic and diastolic"/>
    </code>
    <effectiveDateTime value="2009-05-11"/>
    <status value="final"/>
    <subject>
      <reference value="Patient/981968"/>
    </subject>
    <encounter>
      <reference value="Encounter/143"/>
    </encounter>
    

    <component>
        <code>
            <coding>
                <system value="http://loinc.org"/>
                <code value="8480-6"/>
                <display value="Systolic blood pressure"/>
            </coding>
            <text value="Systolic blood pressure"/>
        </code>
        <valueQuantity>
            <value value="162"/>
            <unit value="mmHg"/>
            <system value="http://unitsofmeasure.org" />
            <code value="mm[Hg]"/>
        </valueQuantity>
    </component>

    <component>
        <code>
            <coding>
                <system value="http://loinc.org"/>
                <code value="8462-4"/>
                <display value="Diastolic blood pressure"/>
            </coding>
            <text value="Diastolic blood pressure"/>
        </code>
        <valueQuantity>
            <value value="102"/>
            <unit value="mmHg"/>
            <system value="http://unitsofmeasure.org" />
            <code value="mm[Hg]"/>
        </valueQuantity>
    </component>

  </Observation>
  
  </resource>
  <request>
    <method value="POST"/>
    <url value="Observation/143-bp"/>
  </request>
</entry>
<entry>
  <resource>
    
    
  <Observation>
  <id value="143-systolic"/>
    <text>
      <status value="generated"/>
      <div xmlns="http://www.w3.org/1999/xhtml">2009-05-11: Systolic blood pressure = 162 mm[Hg]</div>
    </text>
    <code>
      <coding>
        <system value="http://loinc.org"/>
        <code value="8480-6"/>
        <display value="Systolic blood pressure"/>
      </coding>
      <text value="Systolic blood pressure"/>
    </code>
    <valueQuantity>
      <value value="162.0"/>
      <unit value="mm[Hg]"/>
      <system value="http://unitsofmeasure.org" />
      <code value="mm[Hg]"/>
    </valueQuantity>
    
    <effectiveDateTime value="2009-05-11"/>
    <status value="final"/>
    <subject>
      <reference value="Patient/981968"/>
    </subject>
  </Observation>
  
  </resource>
  <request>
    <method value="POST"/>
    <url value="Observation/143-systolic"/>
  </request>
</entry>
<entry>
  <resource>
    
    
  <Observation>
  <id value="143-diastolic"/>
    <text>
      <status value="generated"/>
      <div xmlns="http://www.w3.org/1999/xhtml">2009-05-11: Diastolic blood pressure = 102 mm[Hg]</div>
    </text>
    <code>
      <coding>
        <system value="http://loinc.org"/>
        <code value="8462-4"/>
        <display value="Diastolic blood pressure"/>
      </coding>
      <text value="Diastolic blood pressure"/>
    </code>
    <valueQuantity>
      <value value="102.0"/>
      <unit value="mm[Hg]"/>
      <system value="http://unitsofmeasure.org" />
      <code value="mm[Hg]"/>
    </valueQuantity>
    
    <effectiveDateTime value="2009-05-11"/>
    <status value="final"/>
    <subject>
      <reference value="Patient/981968"/>
    </subject>
  </Observation>
  
  </resource>
  <request>
    <method value="POST"/>
    <url value="Observation/143-diastolic"/>
  </request>
</entry>
  <entry>
  <resource>
    
    
  <Observation>
    <id value="144-bp"/>
    <text>
      <status value="generated"/>
      <div xmlns="http://www.w3.org/1999/xhtml">2009-05-13: Blood pressure 153/96 mmHg</div>
    </text>
    <code>
      <coding>
        <system value="http://loinc.org"/>
        <code value="55284-4"/>
        <display value="Blood pressure systolic and diastolic"/>
      </coding>
      <text value="Blood pressure systolic and diastolic"/>
    </code>
    <effectiveDateTime value="2009-05-13"/>
    <status value="final"/>
    <subject>
      <reference value="Patient/981968"/>
    </subject>
    <encounter>
      <reference value="Encounter/144"/>
    </encounter>
    

    <component>
        <code>
            <coding>
                <system value="http://loinc.org"/>
                <code value="8480-6"/>
                <display value="Systolic blood pressure"/>
            </coding>
            <text value="Systolic blood pressure"/>
        </code>
        <valueQuantity>
            <value value="153"/>
            <unit value="mmHg"/>
            <system value="http://unitsofmeasure.org" />
            <code value="mm[Hg]"/>
        </valueQuantity>
    </component>

    <component>
        <code>
            <coding>
                <system value="http://loinc.org"/>
                <code value="8462-4"/>
                <display value="Diastolic blood pressure"/>
            </coding>
            <text value="Diastolic blood pressure"/>
        </code>
        <valueQuantity>
            <value value="96"/>
            <unit value="mmHg"/>
            <system value="http://unitsofmeasure.org" />
            <code value="mm[Hg]"/>
        </valueQuantity>
    </component>

  </Observation>
  
  </resource>
  <request>
    <method value="POST"/>
    <url value="Observation/144-bp"/>
  </request>
</entry>
<entry>
  <resource>
    
    
  <Observation>
  <id value="144-systolic"/>
    <text>
      <status value="generated"/>
      <div xmlns="http://www.w3.org/1999/xhtml">2009-05-13: Systolic blood pressure = 153 mm[Hg]</div>
    </text>
    <code>
      <coding>
        <system value="http://loinc.org"/>
        <code value="8480-6"/>
        <display value="Systolic blood pressure"/>
      </coding>
      <text value="Systolic blood pressure"/>
    </code>
    <valueQuantity>
      <value value="153.0"/>
      <unit value="mm[Hg]"/>
      <system value="http://unitsofmeasure.org" />
      <code value="mm[Hg]"/>
    </valueQuantity>
    
    <effectiveDateTime value="2009-05-13"/>
    <status value="final"/>
    <subject>
      <reference value="Patient/981968"/>
    </subject>
  </Observation>
  
  </resource>
  <request>
    <method value="POST"/>
    <url value="Observation/144-systolic"/>
  </request>
</entry>
<entry>
  <resource>
    
    
  <Observation>
  <id value="144-diastolic"/>
    <text>
      <status value="generated"/>
      <div xmlns="http://www.w3.org/1999/xhtml">2009-05-13: Diastolic blood pressure = 96 mm[Hg]</div>
    </text>
    <code>
      <coding>
        <system value="http://loinc.org"/>
        <code value="8462-4"/>
        <display value="Diastolic blood pressure"/>
      </coding>
      <text value="Diastolic blood pressure"/>
    </code>
    <valueQuantity>
      <value value="96.0"/>
      <unit value="mm[Hg]"/>
      <system value="http://unitsofmeasure.org" />
      <code value="mm[Hg]"/>
    </valueQuantity>
    
    <effectiveDateTime value="2009-05-13"/>
    <status value="final"/>
    <subject>
      <reference value="Patient/981968"/>
    </subject>
  </Observation>
  
  </resource>
  <request>
    <method value="POST"/>
    <url value="Observation/144-diastolic"/>
  </request>
</entry>
  <entry>
  <resource>
    
    
  <Observation>
    <id value="145-bp"/>
    <text>
      <status value="generated"/>
      <div xmlns="http://www.w3.org/1999/xhtml">2009-05-14: Blood pressure 119/74 mmHg</div>
    </text>
    <code>
      <coding>
        <system value="http://loinc.org"/>
        <code value="55284-4"/>
        <display value="Blood pressure systolic and diastolic"/>
      </coding>
      <text value="Blood pressure systolic and diastolic"/>
    </code>
    <effectiveDateTime value="2009-05-14"/>
    <status value="final"/>
    <subject>
      <reference value="Patient/981968"/>
    </subject>
    <encounter>
      <reference value="Encounter/145"/>
    </encounter>
    

    <component>
        <code>
            <coding>
                <system value="http://loinc.org"/>
                <code value="8480-6"/>
                <display value="Systolic blood pressure"/>
            </coding>
            <text value="Systolic blood pressure"/>
        </code>
        <valueQuantity>
            <value value="119"/>
            <unit value="mmHg"/>
            <system value="http://unitsofmeasure.org" />
            <code value="mm[Hg]"/>
        </valueQuantity>
    </component>

    <component>
        <code>
            <coding>
                <system value="http://loinc.org"/>
                <code value="8462-4"/>
                <display value="Diastolic blood pressure"/>
            </coding>
            <text value="Diastolic blood pressure"/>
        </code>
        <valueQuantity>
            <value value="74"/>
            <unit value="mmHg"/>
            <system value="http://unitsofmeasure.org" />
            <code value="mm[Hg]"/>
        </valueQuantity>
    </component>

  </Observation>
  
  </resource>
  <request>
    <method value="POST"/>
    <url value="Observation/145-bp"/>
  </request>
</entry>
<entry>
  <resource>
    
    
  <Observation>
  <id value="145-systolic"/>
    <text>
      <status value="generated"/>
      <div xmlns="http://www.w3.org/1999/xhtml">2009-05-14: Systolic blood pressure = 119 mm[Hg]</div>
    </text>
    <code>
      <coding>
        <system value="http://loinc.org"/>
        <code value="8480-6"/>
        <display value="Systolic blood pressure"/>
      </coding>
      <text value="Systolic blood pressure"/>
    </code>
    <valueQuantity>
      <value value="119.0"/>
      <unit value="mm[Hg]"/>
      <system value="http://unitsofmeasure.org" />
      <code value="mm[Hg]"/>
    </valueQuantity>
    
    <effectiveDateTime value="2009-05-14"/>
    <status value="final"/>
    <subject>
      <reference value="Patient/981968"/>
    </subject>
  </Observation>
  
  </resource>
  <request>
    <method value="POST"/>
    <url value="Observation/145-systolic"/>
  </request>
</entry>
<entry>
  <resource>
    
    
  <Observation>
  <id value="145-diastolic"/>
    <text>
      <status value="generated"/>
      <div xmlns="http://www.w3.org/1999/xhtml">2009-05-14: Diastolic blood pressure = 74 mm[Hg]</div>
    </text>
    <code>
      <coding>
        <system value="http://loinc.org"/>
        <code value="8462-4"/>
        <display value="Diastolic blood pressure"/>
      </coding>
      <text value="Diastolic blood pressure"/>
    </code>
    <valueQuantity>
      <value value="74.0"/>
      <unit value="mm[Hg]"/>
      <system value="http://unitsofmeasure.org" />
      <code value="mm[Hg]"/>
    </valueQuantity>
    
    <effectiveDateTime value="2009-05-14"/>
    <status value="final"/>
    <subject>
      <reference value="Patient/981968"/>
    </subject>
  </Observation>
  
  </resource>
  <request>
    <method value="POST"/>
    <url value="Observation/145-diastolic"/>
  </request>
</entry>
<entry>
  <resource>
    
    
  <Observation>
  <id value="131-height"/>
    <text>
      <status value="generated"/>
      <div xmlns="http://www.w3.org/1999/xhtml">1997-04-25: height = 169.672 cm</div>
    </text>
    <code>
      <coding>
        <system value="http://loinc.org"/>
        <code value="8302-2"/>
        <display value="height"/>
      </coding>
      <text value="height"/>
    </code>
    <valueQuantity>
      <value value="169.672"/>
      <unit value="cm"/>
      <system value="http://unitsofmeasure.org" />
      <code value="cm"/>
    </valueQuantity>
    
    <effectiveDateTime value="1997-04-25"/>
    <status value="final"/>
    <subject>
      <reference value="Patient/981968"/>
    </subject>
    <encounter>
      <reference value="Encounter/131"/>
    </encounter>
    
  </Observation>
  
  </resource>
  <request>
    <method value="POST"/>
    <url value="Observation/131-height"/>
  </request>
</entry>
<entry>
  <resource>
    
    
  <Observation>
  <id value="131-heartrate"/>
    <text>
      <status value="generated"/>
      <div xmlns="http://www.w3.org/1999/xhtml">1997-04-25: heart_rate = 91.0 {beats}/min</div>
    </text>
    <code>
      <coding>
        <system value="http://loinc.org"/>
        <code value="8867-4"/>
        <display value="heart_rate"/>
      </coding>
      <text value="heart_rate"/>
    </code>
    <valueQuantity>
      <value value="91.0"/>
      <unit value="{beats}/min"/>
      <system value="http://unitsofmeasure.org" />
      <code value="{beats}/min"/>
    </valueQuantity>
    
    <effectiveDateTime value="1997-04-25"/>
    <status value="final"/>
    <subject>
      <reference value="Patient/981968"/>
    </subject>
    <encounter>
      <reference value="Encounter/131"/>
    </encounter>
    
  </Observation>
  
  </resource>
  <request>
    <method value="POST"/>
    <url value="Observation/131-heartrate"/>
  </request>
</entry>
<entry>
  <resource>
    
    
  <Observation>
  <id value="131-respiratoryrate"/>
    <text>
      <status value="generated"/>
      <div xmlns="http://www.w3.org/1999/xhtml">1997-04-25: respiratory_rate = 16.0 {breaths}/min</div>
    </text>
    <code>
      <coding>
        <system value="http://loinc.org"/>
        <code value="9279-1"/>
        <display value="respiratory_rate"/>
      </coding>
      <text value="respiratory_rate"/>
    </code>
    <valueQuantity>
      <value value="16.0"/>
      <unit value="{breaths}/min"/>
      <system value="http://unitsofmeasure.org" />
      <code value="{breaths}/min"/>
    </valueQuantity>
    
    <effectiveDateTime value="1997-04-25"/>
    <status value="final"/>
    <subject>
      <reference value="Patient/981968"/>
    </subject>
    <encounter>
      <reference value="Encounter/131"/>
    </encounter>
    
  </Observation>
  
  </resource>
  <request>
    <method value="POST"/>
    <url value="Observation/131-respiratoryrate"/>
  </request>
</entry>
<entry>
  <resource>
    
    
  <Observation>
  <id value="131-temperature"/>
    <text>
      <status value="generated"/>
      <div xmlns="http://www.w3.org/1999/xhtml">1997-04-25: temperature = 36.11111 Cel</div>
    </text>
    <code>
      <coding>
        <system value="http://loinc.org"/>
        <code value="8310-5"/>
        <display value="temperature"/>
      </coding>
      <text value="temperature"/>
    </code>
    <valueQuantity>
      <value value="36.11111"/>
      <unit value="Cel"/>
      <system value="http://unitsofmeasure.org" />
      <code value="Cel"/>
    </valueQuantity>
    
    <effectiveDateTime value="1997-04-25"/>
    <status value="final"/>
    <subject>
      <reference value="Patient/981968"/>
    </subject>
    <encounter>
      <reference value="Encounter/131"/>
    </encounter>
    
  </Observation>
  
  </resource>
  <request>
    <method value="POST"/>
    <url value="Observation/131-temperature"/>
  </request>
</entry>
<entry>
  <resource>
    
    
  <Observation>
  <id value="131-weight"/>
    <text>
      <status value="generated"/>
      <div xmlns="http://www.w3.org/1999/xhtml">1997-04-25: weight = 88.58659 kg</div>
    </text>
    <code>
      <coding>
        <system value="http://loinc.org"/>
        <code value="3141-9"/>
        <display value="weight"/>
      </coding>
      <text value="weight"/>
    </code>
    <valueQuantity>
      <value value="88.58659"/>
      <unit value="kg"/>
      <system value="http://unitsofmeasure.org" />
      <code value="kg"/>
    </valueQuantity>
    
    <effectiveDateTime value="1997-04-25"/>
    <status value="final"/>
    <subject>
      <reference value="Patient/981968"/>
    </subject>
    <encounter>
      <reference value="Encounter/131"/>
    </encounter>
    
  </Observation>
  
  </resource>
  <request>
    <method value="POST"/>
    <url value="Observation/131-weight"/>
  </request>
</entry>
<entry>
  <resource>
    
    
  <Observation>
  <id value="131-bmi"/>
    <text>
      <status value="generated"/>
      <div xmlns="http://www.w3.org/1999/xhtml">1997-04-25: bmi = 30.7 kg/m2</div>
    </text>
    <code>
      <coding>
        <system value="http://loinc.org"/>
        <code value="39156-5"/>
        <display value="bmi"/>
      </coding>
      <text value="bmi"/>
    </code>
    <valueQuantity>
      <value value="30.7"/>
      <unit value="kg/m2"/>
      <system value="http://unitsofmeasure.org" />
      <code value="kg/m2"/>
    </valueQuantity>
    
    <effectiveDateTime value="1997-04-25"/>
    <status value="final"/>
    <subject>
      <reference value="Patient/981968"/>
    </subject>
    <encounter>
      <reference value="Encounter/131"/>
    </encounter>
    
  </Observation>
  
  </resource>
  <request>
    <method value="POST"/>
    <url value="Observation/131-bmi"/>
  </request>
</entry>
<entry>
  <resource>
    
    
  <Observation>
  <id value="131-oxygensaturation"/>
    <text>
      <status value="generated"/>
      <div xmlns="http://www.w3.org/1999/xhtml">1997-04-25: oxygen_saturation = 95.0 %{HemoglobinSaturation}</div>
    </text>
    <code>
      <coding>
        <system value="http://loinc.org"/>
        <code value="2710-2"/>
        <display value="oxygen_saturation"/>
      </coding>
      <text value="oxygen_saturation"/>
    </code>
    <valueQuantity>
      <value value="95.0"/>
      <unit value="%{HemoglobinSaturation}"/>
      <system value="http://unitsofmeasure.org" />
      <code value="%{HemoglobinSaturation}"/>
    </valueQuantity>
    
    <effectiveDateTime value="1997-04-25"/>
    <status value="final"/>
    <subject>
      <reference value="Patient/981968"/>
    </subject>
    <encounter>
      <reference value="Encounter/131"/>
    </encounter>
    
  </Observation>
  
  </resource>
  <request>
    <method value="POST"/>
    <url value="Observation/131-oxygensaturation"/>
  </request>
</entry>
<entry>
  <resource>
    
    
  <Observation>
  <id value="132-height"/>
    <text>
      <status value="generated"/>
      <div xmlns="http://www.w3.org/1999/xhtml">1997-04-28: height = 169.672 cm</div>
    </text>
    <code>
      <coding>
        <system value="http://loinc.org"/>
        <code value="8302-2"/>
        <display value="height"/>
      </coding>
      <text value="height"/>
    </code>
    <valueQuantity>
      <value value="169.672"/>
      <unit value="cm"/>
      <system value="http://unitsofmeasure.org" />
      <code value="cm"/>
    </valueQuantity>
    
    <effectiveDateTime value="1997-04-28"/>
    <status value="final"/>
    <subject>
      <reference value="Patient/981968"/>
    </subject>
    <encounter>
      <reference value="Encounter/132"/>
    </encounter>
    
  </Observation>
  
  </resource>
  <request>
    <method value="POST"/>
    <url value="Observation/132-height"/>
  </request>
</entry>
<entry>
  <resource>
    
    
  <Observation>
  <id value="132-heartrate"/>
    <text>
      <status value="generated"/>
      <div xmlns="http://www.w3.org/1999/xhtml">1997-04-28: heart_rate = 109.0 {beats}/min</div>
    </text>
    <code>
      <coding>
        <system value="http://loinc.org"/>
        <code value="8867-4"/>
        <display value="heart_rate"/>
      </coding>
      <text value="heart_rate"/>
    </code>
    <valueQuantity>
      <value value="109.0"/>
      <unit value="{beats}/min"/>
      <system value="http://unitsofmeasure.org" />
      <code value="{beats}/min"/>
    </valueQuantity>
    
    <effectiveDateTime value="1997-04-28"/>
    <status value="final"/>
    <subject>
      <reference value="Patient/981968"/>
    </subject>
    <encounter>
      <reference value="Encounter/132"/>
    </encounter>
    
  </Observation>
  
  </resource>
  <request>
    <method value="POST"/>
    <url value="Observation/132-heartrate"/>
  </request>
</entry>
<entry>
  <resource>
    
    
  <Observation>
  <id value="132-respiratoryrate"/>
    <text>
      <status value="generated"/>
      <div xmlns="http://www.w3.org/1999/xhtml">1997-04-28: respiratory_rate = 16.0 {breaths}/min</div>
    </text>
    <code>
      <coding>
        <system value="http://loinc.org"/>
        <code value="9279-1"/>
        <display value="respiratory_rate"/>
      </coding>
      <text value="respiratory_rate"/>
    </code>
    <valueQuantity>
      <value value="16.0"/>
      <unit value="{breaths}/min"/>
      <system value="http://unitsofmeasure.org" />
      <code value="{breaths}/min"/>
    </valueQuantity>
    
    <effectiveDateTime value="1997-04-28"/>
    <status value="final"/>
    <subject>
      <reference value="Patient/981968"/>
    </subject>
    <encounter>
      <reference value="Encounter/132"/>
    </encounter>
    
  </Observation>
  
  </resource>
  <request>
    <method value="POST"/>
    <url value="Observation/132-respiratoryrate"/>
  </request>
</entry>
<entry>
  <resource>
    
    
  <Observation>
  <id value="132-temperature"/>
    <text>
      <status value="generated"/>
      <div xmlns="http://www.w3.org/1999/xhtml">1997-04-28: temperature = 36.11111 Cel</div>
    </text>
    <code>
      <coding>
        <system value="http://loinc.org"/>
        <code value="8310-5"/>
        <display value="temperature"/>
      </coding>
      <text value="temperature"/>
    </code>
    <valueQuantity>
      <value value="36.11111"/>
      <unit value="Cel"/>
      <system value="http://unitsofmeasure.org" />
      <code value="Cel"/>
    </valueQuantity>
    
    <effectiveDateTime value="1997-04-28"/>
    <status value="final"/>
    <subject>
      <reference value="Patient/981968"/>
    </subject>
    <encounter>
      <reference value="Encounter/132"/>
    </encounter>
    
  </Observation>
  
  </resource>
  <request>
    <method value="POST"/>
    <url value="Observation/132-temperature"/>
  </request>
</entry>
<entry>
  <resource>
    
    
  <Observation>
  <id value="132-weight"/>
    <text>
      <status value="generated"/>
      <div xmlns="http://www.w3.org/1999/xhtml">1997-04-28: weight = 88.72267 kg</div>
    </text>
    <code>
      <coding>
        <system value="http://loinc.org"/>
        <code value="3141-9"/>
        <display value="weight"/>
      </coding>
      <text value="weight"/>
    </code>
    <valueQuantity>
      <value value="88.72267"/>
      <unit value="kg"/>
      <system value="http://unitsofmeasure.org" />
      <code value="kg"/>
    </valueQuantity>
    
    <effectiveDateTime value="1997-04-28"/>
    <status value="final"/>
    <subject>
      <reference value="Patient/981968"/>
    </subject>
    <encounter>
      <reference value="Encounter/132"/>
    </encounter>
    
  </Observation>
  
  </resource>
  <request>
    <method value="POST"/>
    <url value="Observation/132-weight"/>
  </request>
</entry>
<entry>
  <resource>
    
    
  <Observation>
  <id value="132-bmi"/>
    <text>
      <status value="generated"/>
      <div xmlns="http://www.w3.org/1999/xhtml">1997-04-28: bmi = 30.8 kg/m2</div>
    </text>
    <code>
      <coding>
        <system value="http://loinc.org"/>
        <code value="39156-5"/>
        <display value="bmi"/>
      </coding>
      <text value="bmi"/>
    </code>
    <valueQuantity>
      <value value="30.8"/>
      <unit value="kg/m2"/>
      <system value="http://unitsofmeasure.org" />
      <code value="kg/m2"/>
    </valueQuantity>
    
    <effectiveDateTime value="1997-04-28"/>
    <status value="final"/>
    <subject>
      <reference value="Patient/981968"/>
    </subject>
    <encounter>
      <reference value="Encounter/132"/>
    </encounter>
    
  </Observation>
  
  </resource>
  <request>
    <method value="POST"/>
    <url value="Observation/132-bmi"/>
  </request>
</entry>
<entry>
  <resource>
    
    
  <Observation>
  <id value="132-oxygensaturation"/>
    <text>
      <status value="generated"/>
      <div xmlns="http://www.w3.org/1999/xhtml">1997-04-28: oxygen_saturation = 95.0 %{HemoglobinSaturation}</div>
    </text>
    <code>
      <coding>
        <system value="http://loinc.org"/>
        <code value="2710-2"/>
        <display value="oxygen_saturation"/>
      </coding>
      <text value="oxygen_saturation"/>
    </code>
    <valueQuantity>
      <value value="95.0"/>
      <unit value="%{HemoglobinSaturation}"/>
      <system value="http://unitsofmeasure.org" />
      <code value="%{HemoglobinSaturation}"/>
    </valueQuantity>
    
    <effectiveDateTime value="1997-04-28"/>
    <status value="final"/>
    <subject>
      <reference value="Patient/981968"/>
    </subject>
    <encounter>
      <reference value="Encounter/132"/>
    </encounter>
    
  </Observation>
  
  </resource>
  <request>
    <method value="POST"/>
    <url value="Observation/132-oxygensaturation"/>
  </request>
</entry>
<entry>
  <resource>
    
    
  <Observation>
  <id value="133-height"/>
    <text>
      <status value="generated"/>
      <div xmlns="http://www.w3.org/1999/xhtml">1998-12-03: height = 169.164 cm</div>
    </text>
    <code>
      <coding>
        <system value="http://loinc.org"/>
        <code value="8302-2"/>
        <display value="height"/>
      </coding>
      <text value="height"/>
    </code>
    <valueQuantity>
      <value value="169.164"/>
      <unit value="cm"/>
      <system value="http://unitsofmeasure.org" />
      <code value="cm"/>
    </valueQuantity>
    
    <effectiveDateTime value="1998-12-03"/>
    <status value="final"/>
    <subject>
      <reference value="Patient/981968"/>
    </subject>
    <encounter>
      <reference value="Encounter/133"/>
    </encounter>
    
  </Observation>
  
  </resource>
  <request>
    <method value="POST"/>
    <url value="Observation/133-height"/>
  </request>
</entry>
<entry>
  <resource>
    
    
  <Observation>
  <id value="133-heartrate"/>
    <text>
      <status value="generated"/>
      <div xmlns="http://www.w3.org/1999/xhtml">1998-12-03: heart_rate = 82.0 {beats}/min</div>
    </text>
    <code>
      <coding>
        <system value="http://loinc.org"/>
        <code value="8867-4"/>
        <display value="heart_rate"/>
      </coding>
      <text value="heart_rate"/>
    </code>
    <valueQuantity>
      <value value="82.0"/>
      <unit value="{beats}/min"/>
      <system value="http://unitsofmeasure.org" />
      <code value="{beats}/min"/>
    </valueQuantity>
    
    <effectiveDateTime value="1998-12-03"/>
    <status value="final"/>
    <subject>
      <reference value="Patient/981968"/>
    </subject>
    <encounter>
      <reference value="Encounter/133"/>
    </encounter>
    
  </Observation>
  
  </resource>
  <request>
    <method value="POST"/>
    <url value="Observation/133-heartrate"/>
  </request>
</entry>
<entry>
  <resource>
    
    
  <Observation>
  <id value="133-respiratoryrate"/>
    <text>
      <status value="generated"/>
      <div xmlns="http://www.w3.org/1999/xhtml">1998-12-03: respiratory_rate = 15.0 {breaths}/min</div>
    </text>
    <code>
      <coding>
        <system value="http://loinc.org"/>
        <code value="9279-1"/>
        <display value="respiratory_rate"/>
      </coding>
      <text value="respiratory_rate"/>
    </code>
    <valueQuantity>
      <value value="15.0"/>
      <unit value="{breaths}/min"/>
      <system value="http://unitsofmeasure.org" />
      <code value="{breaths}/min"/>
    </valueQuantity>
    
    <effectiveDateTime value="1998-12-03"/>
    <status value="final"/>
    <subject>
      <reference value="Patient/981968"/>
    </subject>
    <encounter>
      <reference value="Encounter/133"/>
    </encounter>
    
  </Observation>
  
  </resource>
  <request>
    <method value="POST"/>
    <url value="Observation/133-respiratoryrate"/>
  </request>
</entry>
<entry>
  <resource>
    
    
  <Observation>
  <id value="133-temperature"/>
    <text>
      <status value="generated"/>
      <div xmlns="http://www.w3.org/1999/xhtml">1998-12-03: temperature = 36.11111 Cel</div>
    </text>
    <code>
      <coding>
        <system value="http://loinc.org"/>
        <code value="8310-5"/>
        <display value="temperature"/>
      </coding>
      <text value="temperature"/>
    </code>
    <valueQuantity>
      <value value="36.11111"/>
      <unit value="Cel"/>
      <system value="http://unitsofmeasure.org" />
      <code value="Cel"/>
    </valueQuantity>
    
    <effectiveDateTime value="1998-12-03"/>
    <status value="final"/>
    <subject>
      <reference value="Patient/981968"/>
    </subject>
    <encounter>
      <reference value="Encounter/133"/>
    </encounter>
    
  </Observation>
  
  </resource>
  <request>
    <method value="POST"/>
    <url value="Observation/133-temperature"/>
  </request>
</entry>
<entry>
  <resource>
    
    
  <Observation>
  <id value="133-weight"/>
    <text>
      <status value="generated"/>
      <div xmlns="http://www.w3.org/1999/xhtml">1998-12-03: weight = 89.31234 kg</div>
    </text>
    <code>
      <coding>
        <system value="http://loinc.org"/>
        <code value="3141-9"/>
        <display value="weight"/>
      </coding>
      <text value="weight"/>
    </code>
    <valueQuantity>
      <value value="89.31234"/>
      <unit value="kg"/>
      <system value="http://unitsofmeasure.org" />
      <code value="kg"/>
    </valueQuantity>
    
    <effectiveDateTime value="1998-12-03"/>
    <status value="final"/>
    <subject>
      <reference value="Patient/981968"/>
    </subject>
    <encounter>
      <reference value="Encounter/133"/>
    </encounter>
    
  </Observation>
  
  </resource>
  <request>
    <method value="POST"/>
    <url value="Observation/133-weight"/>
  </request>
</entry>
<entry>
  <resource>
    
    
  <Observation>
  <id value="133-bmi"/>
    <text>
      <status value="generated"/>
      <div xmlns="http://www.w3.org/1999/xhtml">1998-12-03: bmi = 31.2 kg/m2</div>
    </text>
    <code>
      <coding>
        <system value="http://loinc.org"/>
        <code value="39156-5"/>
        <display value="bmi"/>
      </coding>
      <text value="bmi"/>
    </code>
    <valueQuantity>
      <value value="31.2"/>
      <unit value="kg/m2"/>
      <system value="http://unitsofmeasure.org" />
      <code value="kg/m2"/>
    </valueQuantity>
    
    <effectiveDateTime value="1998-12-03"/>
    <status value="final"/>
    <subject>
      <reference value="Patient/981968"/>
    </subject>
    <encounter>
      <reference value="Encounter/133"/>
    </encounter>
    
  </Observation>
  
  </resource>
  <request>
    <method value="POST"/>
    <url value="Observation/133-bmi"/>
  </request>
</entry>
<entry>
  <resource>
    
    
  <Observation>
  <id value="133-oxygensaturation"/>
    <text>
      <status value="generated"/>
      <div xmlns="http://www.w3.org/1999/xhtml">1998-12-03: oxygen_saturation = 95.0 %{HemoglobinSaturation}</div>
    </text>
    <code>
      <coding>
        <system value="http://loinc.org"/>
        <code value="2710-2"/>
        <display value="oxygen_saturation"/>
      </coding>
      <text value="oxygen_saturation"/>
    </code>
    <valueQuantity>
      <value value="95.0"/>
      <unit value="%{HemoglobinSaturation}"/>
      <system value="http://unitsofmeasure.org" />
      <code value="%{HemoglobinSaturation}"/>
    </valueQuantity>
    
    <effectiveDateTime value="1998-12-03"/>
    <status value="final"/>
    <subject>
      <reference value="Patient/981968"/>
    </subject>
    <encounter>
      <reference value="Encounter/133"/>
    </encounter>
    
  </Observation>
  
  </resource>
  <request>
    <method value="POST"/>
    <url value="Observation/133-oxygensaturation"/>
  </request>
</entry>
<entry>
  <resource>
    
    
  <Observation>
  <id value="134-height"/>
    <text>
      <status value="generated"/>
      <div xmlns="http://www.w3.org/1999/xhtml">2001-01-18: height = 170.18 cm</div>
    </text>
    <code>
      <coding>
        <system value="http://loinc.org"/>
        <code value="8302-2"/>
        <display value="height"/>
      </coding>
      <text value="height"/>
    </code>
    <valueQuantity>
      <value value="170.18"/>
      <unit value="cm"/>
      <system value="http://unitsofmeasure.org" />
      <code value="cm"/>
    </valueQuantity>
    
    <effectiveDateTime value="2001-01-18"/>
    <status value="final"/>
    <subject>
      <reference value="Patient/981968"/>
    </subject>
    <encounter>
      <reference value="Encounter/134"/>
    </encounter>
    
  </Observation>
  
  </resource>
  <request>
    <method value="POST"/>
    <url value="Observation/134-height"/>
  </request>
</entry>
<entry>
  <resource>
    
    
  <Observation>
  <id value="134-heartrate"/>
    <text>
      <status value="generated"/>
      <div xmlns="http://www.w3.org/1999/xhtml">2001-01-18: heart_rate = 77.0 {beats}/min</div>
    </text>
    <code>
      <coding>
        <system value="http://loinc.org"/>
        <code value="8867-4"/>
        <display value="heart_rate"/>
      </coding>
      <text value="heart_rate"/>
    </code>
    <valueQuantity>
      <value value="77.0"/>
      <unit value="{beats}/min"/>
      <system value="http://unitsofmeasure.org" />
      <code value="{beats}/min"/>
    </valueQuantity>
    
    <effectiveDateTime value="2001-01-18"/>
    <status value="final"/>
    <subject>
      <reference value="Patient/981968"/>
    </subject>
    <encounter>
      <reference value="Encounter/134"/>
    </encounter>
    
  </Observation>
  
  </resource>
  <request>
    <method value="POST"/>
    <url value="Observation/134-heartrate"/>
  </request>
</entry>
<entry>
  <resource>
    
    
  <Observation>
  <id value="134-respiratoryrate"/>
    <text>
      <status value="generated"/>
      <div xmlns="http://www.w3.org/1999/xhtml">2001-01-18: respiratory_rate = 16.0 {breaths}/min</div>
    </text>
    <code>
      <coding>
        <system value="http://loinc.org"/>
        <code value="9279-1"/>
        <display value="respiratory_rate"/>
      </coding>
      <text value="respiratory_rate"/>
    </code>
    <valueQuantity>
      <value value="16.0"/>
      <unit value="{breaths}/min"/>
      <system value="http://unitsofmeasure.org" />
      <code value="{breaths}/min"/>
    </valueQuantity>
    
    <effectiveDateTime value="2001-01-18"/>
    <status value="final"/>
    <subject>
      <reference value="Patient/981968"/>
    </subject>
    <encounter>
      <reference value="Encounter/134"/>
    </encounter>
    
  </Observation>
  
  </resource>
  <request>
    <method value="POST"/>
    <url value="Observation/134-respiratoryrate"/>
  </request>
</entry>
<entry>
  <resource>
    
    
  <Observation>
  <id value="134-temperature"/>
    <text>
      <status value="generated"/>
      <div xmlns="http://www.w3.org/1999/xhtml">2001-01-18: temperature = 36.11111 Cel</div>
    </text>
    <code>
      <coding>
        <system value="http://loinc.org"/>
        <code value="8310-5"/>
        <display value="temperature"/>
      </coding>
      <text value="temperature"/>
    </code>
    <valueQuantity>
      <value value="36.11111"/>
      <unit value="Cel"/>
      <system value="http://unitsofmeasure.org" />
      <code value="Cel"/>
    </valueQuantity>
    
    <effectiveDateTime value="2001-01-18"/>
    <status value="final"/>
    <subject>
      <reference value="Patient/981968"/>
    </subject>
    <encounter>
      <reference value="Encounter/134"/>
    </encounter>
    
  </Observation>
  
  </resource>
  <request>
    <method value="POST"/>
    <url value="Observation/134-temperature"/>
  </request>
</entry>
<entry>
  <resource>
    
    
  <Observation>
  <id value="134-weight"/>
    <text>
      <status value="generated"/>
      <div xmlns="http://www.w3.org/1999/xhtml">2001-01-18: weight = 88.17836 kg</div>
    </text>
    <code>
      <coding>
        <system value="http://loinc.org"/>
        <code value="3141-9"/>
        <display value="weight"/>
      </coding>
      <text value="weight"/>
    </code>
    <valueQuantity>
      <value value="88.17836"/>
      <unit value="kg"/>
      <system value="http://unitsofmeasure.org" />
      <code value="kg"/>
    </valueQuantity>
    
    <effectiveDateTime value="2001-01-18"/>
    <status value="final"/>
    <subject>
      <reference value="Patient/981968"/>
    </subject>
    <encounter>
      <reference value="Encounter/134"/>
    </encounter>
    
  </Observation>
  
  </resource>
  <request>
    <method value="POST"/>
    <url value="Observation/134-weight"/>
  </request>
</entry>
<entry>
  <resource>
    
    
  <Observation>
  <id value="134-bmi"/>
    <text>
      <status value="generated"/>
      <div xmlns="http://www.w3.org/1999/xhtml">2001-01-18: bmi = 30.4 kg/m2</div>
    </text>
    <code>
      <coding>
        <system value="http://loinc.org"/>
        <code value="39156-5"/>
        <display value="bmi"/>
      </coding>
      <text value="bmi"/>
    </code>
    <valueQuantity>
      <value value="30.4"/>
      <unit value="kg/m2"/>
      <system value="http://unitsofmeasure.org" />
      <code value="kg/m2"/>
    </valueQuantity>
    
    <effectiveDateTime value="2001-01-18"/>
    <status value="final"/>
    <subject>
      <reference value="Patient/981968"/>
    </subject>
    <encounter>
      <reference value="Encounter/134"/>
    </encounter>
    
  </Observation>
  
  </resource>
  <request>
    <method value="POST"/>
    <url value="Observation/134-bmi"/>
  </request>
</entry>
<entry>
  <resource>
    
    
  <Observation>
  <id value="134-oxygensaturation"/>
    <text>
      <status value="generated"/>
      <div xmlns="http://www.w3.org/1999/xhtml">2001-01-18: oxygen_saturation = 96.0 %{HemoglobinSaturation}</div>
    </text>
    <code>
      <coding>
        <system value="http://loinc.org"/>
        <code value="2710-2"/>
        <display value="oxygen_saturation"/>
      </coding>
      <text value="oxygen_saturation"/>
    </code>
    <valueQuantity>
      <value value="96.0"/>
      <unit value="%{HemoglobinSaturation}"/>
      <system value="http://unitsofmeasure.org" />
      <code value="%{HemoglobinSaturation}"/>
    </valueQuantity>
    
    <effectiveDateTime value="2001-01-18"/>
    <status value="final"/>
    <subject>
      <reference value="Patient/981968"/>
    </subject>
    <encounter>
      <reference value="Encounter/134"/>
    </encounter>
    
  </Observation>
  
  </resource>
  <request>
    <method value="POST"/>
    <url value="Observation/134-oxygensaturation"/>
  </request>
</entry>
<entry>
  <resource>
    
    
  <Observation>
  <id value="135-height"/>
    <text>
      <status value="generated"/>
      <div xmlns="http://www.w3.org/1999/xhtml">2001-01-19: height = 169.926 cm</div>
    </text>
    <code>
      <coding>
        <system value="http://loinc.org"/>
        <code value="8302-2"/>
        <display value="height"/>
      </coding>
      <text value="height"/>
    </code>
    <valueQuantity>
      <value value="169.926"/>
      <unit value="cm"/>
      <system value="http://unitsofmeasure.org" />
      <code value="cm"/>
    </valueQuantity>
    
    <effectiveDateTime value="2001-01-19"/>
    <status value="final"/>
    <subject>
      <reference value="Patient/981968"/>
    </subject>
    <encounter>
      <reference value="Encounter/135"/>
    </encounter>
    
  </Observation>
  
  </resource>
  <request>
    <method value="POST"/>
    <url value="Observation/135-height"/>
  </request>
</entry>
<entry>
  <resource>
    
    
  <Observation>
  <id value="135-heartrate"/>
    <text>
      <status value="generated"/>
      <div xmlns="http://www.w3.org/1999/xhtml">2001-01-19: heart_rate = 81.0 {beats}/min</div>
    </text>
    <code>
      <coding>
        <system value="http://loinc.org"/>
        <code value="8867-4"/>
        <display value="heart_rate"/>
      </coding>
      <text value="heart_rate"/>
    </code>
    <valueQuantity>
      <value value="81.0"/>
      <unit value="{beats}/min"/>
      <system value="http://unitsofmeasure.org" />
      <code value="{beats}/min"/>
    </valueQuantity>
    
    <effectiveDateTime value="2001-01-19"/>
    <status value="final"/>
    <subject>
      <reference value="Patient/981968"/>
    </subject>
    <encounter>
      <reference value="Encounter/135"/>
    </encounter>
    
  </Observation>
  
  </resource>
  <request>
    <method value="POST"/>
    <url value="Observation/135-heartrate"/>
  </request>
</entry>
<entry>
  <resource>
    
    
  <Observation>
  <id value="135-respiratoryrate"/>
    <text>
      <status value="generated"/>
      <div xmlns="http://www.w3.org/1999/xhtml">2001-01-19: respiratory_rate = 16.0 {breaths}/min</div>
    </text>
    <code>
      <coding>
        <system value="http://loinc.org"/>
        <code value="9279-1"/>
        <display value="respiratory_rate"/>
      </coding>
      <text value="respiratory_rate"/>
    </code>
    <valueQuantity>
      <value value="16.0"/>
      <unit value="{breaths}/min"/>
      <system value="http://unitsofmeasure.org" />
      <code value="{breaths}/min"/>
    </valueQuantity>
    
    <effectiveDateTime value="2001-01-19"/>
    <status value="final"/>
    <subject>
      <reference value="Patient/981968"/>
    </subject>
    <encounter>
      <reference value="Encounter/135"/>
    </encounter>
    
  </Observation>
  
  </resource>
  <request>
    <method value="POST"/>
    <url value="Observation/135-respiratoryrate"/>
  </request>
</entry>
<entry>
  <resource>
    
    
  <Observation>
  <id value="135-temperature"/>
    <text>
      <status value="generated"/>
      <div xmlns="http://www.w3.org/1999/xhtml">2001-01-19: temperature = 36.11111 Cel</div>
    </text>
    <code>
      <coding>
        <system value="http://loinc.org"/>
        <code value="8310-5"/>
        <display value="temperature"/>
      </coding>
      <text value="temperature"/>
    </code>
    <valueQuantity>
      <value value="36.11111"/>
      <unit value="Cel"/>
      <system value="http://unitsofmeasure.org" />
      <code value="Cel"/>
    </valueQuantity>
    
    <effectiveDateTime value="2001-01-19"/>
    <status value="final"/>
    <subject>
      <reference value="Patient/981968"/>
    </subject>
    <encounter>
      <reference value="Encounter/135"/>
    </encounter>
    
  </Observation>
  
  </resource>
  <request>
    <method value="POST"/>
    <url value="Observation/135-temperature"/>
  </request>
</entry>
<entry>
  <resource>
    
    
  <Observation>
  <id value="135-weight"/>
    <text>
      <status value="generated"/>
      <div xmlns="http://www.w3.org/1999/xhtml">2001-01-19: weight = 90.1288 kg</div>
    </text>
    <code>
      <coding>
        <system value="http://loinc.org"/>
        <code value="3141-9"/>
        <display value="weight"/>
      </coding>
      <text value="weight"/>
    </code>
    <valueQuantity>
      <value value="90.1288"/>
      <unit value="kg"/>
      <system value="http://unitsofmeasure.org" />
      <code value="kg"/>
    </valueQuantity>
    
    <effectiveDateTime value="2001-01-19"/>
    <status value="final"/>
    <subject>
      <reference value="Patient/981968"/>
    </subject>
    <encounter>
      <reference value="Encounter/135"/>
    </encounter>
    
  </Observation>
  
  </resource>
  <request>
    <method value="POST"/>
    <url value="Observation/135-weight"/>
  </request>
</entry>
<entry>
  <resource>
    
    
  <Observation>
  <id value="135-bmi"/>
    <text>
      <status value="generated"/>
      <div xmlns="http://www.w3.org/1999/xhtml">2001-01-19: bmi = 31.2 kg/m2</div>
    </text>
    <code>
      <coding>
        <system value="http://loinc.org"/>
        <code value="39156-5"/>
        <display value="bmi"/>
      </coding>
      <text value="bmi"/>
    </code>
    <valueQuantity>
      <value value="31.2"/>
      <unit value="kg/m2"/>
      <system value="http://unitsofmeasure.org" />
      <code value="kg/m2"/>
    </valueQuantity>
    
    <effectiveDateTime value="2001-01-19"/>
    <status value="final"/>
    <subject>
      <reference value="Patient/981968"/>
    </subject>
    <encounter>
      <reference value="Encounter/135"/>
    </encounter>
    
  </Observation>
  
  </resource>
  <request>
    <method value="POST"/>
    <url value="Observation/135-bmi"/>
  </request>
</entry>
<entry>
  <resource>
    
    
  <Observation>
  <id value="135-oxygensaturation"/>
    <text>
      <status value="generated"/>
      <div xmlns="http://www.w3.org/1999/xhtml">2001-01-19: oxygen_saturation = 96.0 %{HemoglobinSaturation}</div>
    </text>
    <code>
      <coding>
        <system value="http://loinc.org"/>
        <code value="2710-2"/>
        <display value="oxygen_saturation"/>
      </coding>
      <text value="oxygen_saturation"/>
    </code>
    <valueQuantity>
      <value value="96.0"/>
      <unit value="%{HemoglobinSaturation}"/>
      <system value="http://unitsofmeasure.org" />
      <code value="%{HemoglobinSaturation}"/>
    </valueQuantity>
    
    <effectiveDateTime value="2001-01-19"/>
    <status value="final"/>
    <subject>
      <reference value="Patient/981968"/>
    </subject>
    <encounter>
      <reference value="Encounter/135"/>
    </encounter>
    
  </Observation>
  
  </resource>
  <request>
    <method value="POST"/>
    <url value="Observation/135-oxygensaturation"/>
  </request>
</entry>
<entry>
  <resource>
    
    
  <Observation>
  <id value="136-height"/>
    <text>
      <status value="generated"/>
      <div xmlns="http://www.w3.org/1999/xhtml">2005-02-28: height = 169.418 cm</div>
    </text>
    <code>
      <coding>
        <system value="http://loinc.org"/>
        <code value="8302-2"/>
        <display value="height"/>
      </coding>
      <text value="height"/>
    </code>
    <valueQuantity>
      <value value="169.418"/>
      <unit value="cm"/>
      <system value="http://unitsofmeasure.org" />
      <code value="cm"/>
    </valueQuantity>
    
    <effectiveDateTime value="2005-02-28"/>
    <status value="final"/>
    <subject>
      <reference value="Patient/981968"/>
    </subject>
    <encounter>
      <reference value="Encounter/136"/>
    </encounter>
    
  </Observation>
  
  </resource>
  <request>
    <method value="POST"/>
    <url value="Observation/136-height"/>
  </request>
</entry>
<entry>
  <resource>
    
    
  <Observation>
  <id value="136-heartrate"/>
    <text>
      <status value="generated"/>
      <div xmlns="http://www.w3.org/1999/xhtml">2005-02-28: heart_rate = 83.0 {beats}/min</div>
    </text>
    <code>
      <coding>
        <system value="http://loinc.org"/>
        <code value="8867-4"/>
        <display value="heart_rate"/>
      </coding>
      <text value="heart_rate"/>
    </code>
    <valueQuantity>
      <value value="83.0"/>
      <unit value="{beats}/min"/>
      <system value="http://unitsofmeasure.org" />
      <code value="{beats}/min"/>
    </valueQuantity>
    
    <effectiveDateTime value="2005-02-28"/>
    <status value="final"/>
    <subject>
      <reference value="Patient/981968"/>
    </subject>
    <encounter>
      <reference value="Encounter/136"/>
    </encounter>
    
  </Observation>
  
  </resource>
  <request>
    <method value="POST"/>
    <url value="Observation/136-heartrate"/>
  </request>
</entry>
<entry>
  <resource>
    
    
  <Observation>
  <id value="136-respiratoryrate"/>
    <text>
      <status value="generated"/>
      <div xmlns="http://www.w3.org/1999/xhtml">2005-02-28: respiratory_rate = 16.0 {breaths}/min</div>
    </text>
    <code>
      <coding>
        <system value="http://loinc.org"/>
        <code value="9279-1"/>
        <display value="respiratory_rate"/>
      </coding>
      <text value="respiratory_rate"/>
    </code>
    <valueQuantity>
      <value value="16.0"/>
      <unit value="{breaths}/min"/>
      <system value="http://unitsofmeasure.org" />
      <code value="{breaths}/min"/>
    </valueQuantity>
    
    <effectiveDateTime value="2005-02-28"/>
    <status value="final"/>
    <subject>
      <reference value="Patient/981968"/>
    </subject>
    <encounter>
      <reference value="Encounter/136"/>
    </encounter>
    
  </Observation>
  
  </resource>
  <request>
    <method value="POST"/>
    <url value="Observation/136-respiratoryrate"/>
  </request>
</entry>
<entry>
  <resource>
    
    
  <Observation>
  <id value="136-temperature"/>
    <text>
      <status value="generated"/>
      <div xmlns="http://www.w3.org/1999/xhtml">2005-02-28: temperature = 36.05556 Cel</div>
    </text>
    <code>
      <coding>
        <system value="http://loinc.org"/>
        <code value="8310-5"/>
        <display value="temperature"/>
      </coding>
      <text value="temperature"/>
    </code>
    <valueQuantity>
      <value value="36.05556"/>
      <unit value="Cel"/>
      <system value="http://unitsofmeasure.org" />
      <code value="Cel"/>
    </valueQuantity>
    
    <effectiveDateTime value="2005-02-28"/>
    <status value="final"/>
    <subject>
      <reference value="Patient/981968"/>
    </subject>
    <encounter>
      <reference value="Encounter/136"/>
    </encounter>
    
  </Observation>
  
  </resource>
  <request>
    <method value="POST"/>
    <url value="Observation/136-temperature"/>
  </request>
</entry>
<entry>
  <resource>
    
    
  <Observation>
  <id value="136-weight"/>
    <text>
      <status value="generated"/>
      <div xmlns="http://www.w3.org/1999/xhtml">2005-02-28: weight = 89.17626 kg</div>
    </text>
    <code>
      <coding>
        <system value="http://loinc.org"/>
        <code value="3141-9"/>
        <display value="weight"/>
      </coding>
      <text value="weight"/>
    </code>
    <valueQuantity>
      <value value="89.17626"/>
      <unit value="kg"/>
      <system value="http://unitsofmeasure.org" />
      <code value="kg"/>
    </valueQuantity>
    
    <effectiveDateTime value="2005-02-28"/>
    <status value="final"/>
    <subject>
      <reference value="Patient/981968"/>
    </subject>
    <encounter>
      <reference value="Encounter/136"/>
    </encounter>
    
  </Observation>
  
  </resource>
  <request>
    <method value="POST"/>
    <url value="Observation/136-weight"/>
  </request>
</entry>
<entry>
  <resource>
    
    
  <Observation>
  <id value="136-bmi"/>
    <text>
      <status value="generated"/>
      <div xmlns="http://www.w3.org/1999/xhtml">2005-02-28: bmi = 31.0 kg/m2</div>
    </text>
    <code>
      <coding>
        <system value="http://loinc.org"/>
        <code value="39156-5"/>
        <display value="bmi"/>
      </coding>
      <text value="bmi"/>
    </code>
    <valueQuantity>
      <value value="31.0"/>
      <unit value="kg/m2"/>
      <system value="http://unitsofmeasure.org" />
      <code value="kg/m2"/>
    </valueQuantity>
    
    <effectiveDateTime value="2005-02-28"/>
    <status value="final"/>
    <subject>
      <reference value="Patient/981968"/>
    </subject>
    <encounter>
      <reference value="Encounter/136"/>
    </encounter>
    
  </Observation>
  
  </resource>
  <request>
    <method value="POST"/>
    <url value="Observation/136-bmi"/>
  </request>
</entry>
<entry>
  <resource>
    
    
  <Observation>
  <id value="136-oxygensaturation"/>
    <text>
      <status value="generated"/>
      <div xmlns="http://www.w3.org/1999/xhtml">2005-02-28: oxygen_saturation = 95.0 %{HemoglobinSaturation}</div>
    </text>
    <code>
      <coding>
        <system value="http://loinc.org"/>
        <code value="2710-2"/>
        <display value="oxygen_saturation"/>
      </coding>
      <text value="oxygen_saturation"/>
    </code>
    <valueQuantity>
      <value value="95.0"/>
      <unit value="%{HemoglobinSaturation}"/>
      <system value="http://unitsofmeasure.org" />
      <code value="%{HemoglobinSaturation}"/>
    </valueQuantity>
    
    <effectiveDateTime value="2005-02-28"/>
    <status value="final"/>
    <subject>
      <reference value="Patient/981968"/>
    </subject>
    <encounter>
      <reference value="Encounter/136"/>
    </encounter>
    
  </Observation>
  
  </resource>
  <request>
    <method value="POST"/>
    <url value="Observation/136-oxygensaturation"/>
  </request>
</entry>
<entry>
  <resource>
    
    
  <Observation>
  <id value="137-height"/>
    <text>
      <status value="generated"/>
      <div xmlns="http://www.w3.org/1999/xhtml">2005-04-29: height = 169.672 cm</div>
    </text>
    <code>
      <coding>
        <system value="http://loinc.org"/>
        <code value="8302-2"/>
        <display value="height"/>
      </coding>
      <text value="height"/>
    </code>
    <valueQuantity>
      <value value="169.672"/>
      <unit value="cm"/>
      <system value="http://unitsofmeasure.org" />
      <code value="cm"/>
    </valueQuantity>
    
    <effectiveDateTime value="2005-04-29"/>
    <status value="final"/>
    <subject>
      <reference value="Patient/981968"/>
    </subject>
    <encounter>
      <reference value="Encounter/137"/>
    </encounter>
    
  </Observation>
  
  </resource>
  <request>
    <method value="POST"/>
    <url value="Observation/137-height"/>
  </request>
</entry>
<entry>
  <resource>
    
    
  <Observation>
  <id value="137-heartrate"/>
    <text>
      <status value="generated"/>
      <div xmlns="http://www.w3.org/1999/xhtml">2005-04-29: heart_rate = 111.0 {beats}/min</div>
    </text>
    <code>
      <coding>
        <system value="http://loinc.org"/>
        <code value="8867-4"/>
        <display value="heart_rate"/>
      </coding>
      <text value="heart_rate"/>
    </code>
    <valueQuantity>
      <value value="111.0"/>
      <unit value="{beats}/min"/>
      <system value="http://unitsofmeasure.org" />
      <code value="{beats}/min"/>
    </valueQuantity>
    
    <effectiveDateTime value="2005-04-29"/>
    <status value="final"/>
    <subject>
      <reference value="Patient/981968"/>
    </subject>
    <encounter>
      <reference value="Encounter/137"/>
    </encounter>
    
  </Observation>
  
  </resource>
  <request>
    <method value="POST"/>
    <url value="Observation/137-heartrate"/>
  </request>
</entry>
<entry>
  <resource>
    
    
  <Observation>
  <id value="137-respiratoryrate"/>
    <text>
      <status value="generated"/>
      <div xmlns="http://www.w3.org/1999/xhtml">2005-04-29: respiratory_rate = 15.0 {breaths}/min</div>
    </text>
    <code>
      <coding>
        <system value="http://loinc.org"/>
        <code value="9279-1"/>
        <display value="respiratory_rate"/>
      </coding>
      <text value="respiratory_rate"/>
    </code>
    <valueQuantity>
      <value value="15.0"/>
      <unit value="{breaths}/min"/>
      <system value="http://unitsofmeasure.org" />
      <code value="{breaths}/min"/>
    </valueQuantity>
    
    <effectiveDateTime value="2005-04-29"/>
    <status value="final"/>
    <subject>
      <reference value="Patient/981968"/>
    </subject>
    <encounter>
      <reference value="Encounter/137"/>
    </encounter>
    
  </Observation>
  
  </resource>
  <request>
    <method value="POST"/>
    <url value="Observation/137-respiratoryrate"/>
  </request>
</entry>
<entry>
  <resource>
    
    
  <Observation>
  <id value="137-temperature"/>
    <text>
      <status value="generated"/>
      <div xmlns="http://www.w3.org/1999/xhtml">2005-04-29: temperature = 36.05556 Cel</div>
    </text>
    <code>
      <coding>
        <system value="http://loinc.org"/>
        <code value="8310-5"/>
        <display value="temperature"/>
      </coding>
      <text value="temperature"/>
    </code>
    <valueQuantity>
      <value value="36.05556"/>
      <unit value="Cel"/>
      <system value="http://unitsofmeasure.org" />
      <code value="Cel"/>
    </valueQuantity>
    
    <effectiveDateTime value="2005-04-29"/>
    <status value="final"/>
    <subject>
      <reference value="Patient/981968"/>
    </subject>
    <encounter>
      <reference value="Encounter/137"/>
    </encounter>
    
  </Observation>
  
  </resource>
  <request>
    <method value="POST"/>
    <url value="Observation/137-temperature"/>
  </request>
</entry>
<entry>
  <resource>
    
    
  <Observation>
  <id value="137-weight"/>
    <text>
      <status value="generated"/>
      <div xmlns="http://www.w3.org/1999/xhtml">2005-04-29: weight = 90.67311 kg</div>
    </text>
    <code>
      <coding>
        <system value="http://loinc.org"/>
        <code value="3141-9"/>
        <display value="weight"/>
      </coding>
      <text value="weight"/>
    </code>
    <valueQuantity>
      <value value="90.67311"/>
      <unit value="kg"/>
      <system value="http://unitsofmeasure.org" />
      <code value="kg"/>
    </valueQuantity>
    
    <effectiveDateTime value="2005-04-29"/>
    <status value="final"/>
    <subject>
      <reference value="Patient/981968"/>
    </subject>
    <encounter>
      <reference value="Encounter/137"/>
    </encounter>
    
  </Observation>
  
  </resource>
  <request>
    <method value="POST"/>
    <url value="Observation/137-weight"/>
  </request>
</entry>
<entry>
  <resource>
    
    
  <Observation>
  <id value="137-bmi"/>
    <text>
      <status value="generated"/>
      <div xmlns="http://www.w3.org/1999/xhtml">2005-04-29: bmi = 31.5 kg/m2</div>
    </text>
    <code>
      <coding>
        <system value="http://loinc.org"/>
        <code value="39156-5"/>
        <display value="bmi"/>
      </coding>
      <text value="bmi"/>
    </code>
    <valueQuantity>
      <value value="31.5"/>
      <unit value="kg/m2"/>
      <system value="http://unitsofmeasure.org" />
      <code value="kg/m2"/>
    </valueQuantity>
    
    <effectiveDateTime value="2005-04-29"/>
    <status value="final"/>
    <subject>
      <reference value="Patient/981968"/>
    </subject>
    <encounter>
      <reference value="Encounter/137"/>
    </encounter>
    
  </Observation>
  
  </resource>
  <request>
    <method value="POST"/>
    <url value="Observation/137-bmi"/>
  </request>
</entry>
<entry>
  <resource>
    
    
  <Observation>
  <id value="137-oxygensaturation"/>
    <text>
      <status value="generated"/>
      <div xmlns="http://www.w3.org/1999/xhtml">2005-04-29: oxygen_saturation = 95.0 %{HemoglobinSaturation}</div>
    </text>
    <code>
      <coding>
        <system value="http://loinc.org"/>
        <code value="2710-2"/>
        <display value="oxygen_saturation"/>
      </coding>
      <text value="oxygen_saturation"/>
    </code>
    <valueQuantity>
      <value value="95.0"/>
      <unit value="%{HemoglobinSaturation}"/>
      <system value="http://unitsofmeasure.org" />
      <code value="%{HemoglobinSaturation}"/>
    </valueQuantity>
    
    <effectiveDateTime value="2005-04-29"/>
    <status value="final"/>
    <subject>
      <reference value="Patient/981968"/>
    </subject>
    <encounter>
      <reference value="Encounter/137"/>
    </encounter>
    
  </Observation>
  
  </resource>
  <request>
    <method value="POST"/>
    <url value="Observation/137-oxygensaturation"/>
  </request>
</entry>
<entry>
  <resource>
    
    
  <Observation>
  <id value="138-height"/>
    <text>
      <status value="generated"/>
      <div xmlns="http://www.w3.org/1999/xhtml">2005-05-02: height = 169.672 cm</div>
    </text>
    <code>
      <coding>
        <system value="http://loinc.org"/>
        <code value="8302-2"/>
        <display value="height"/>
      </coding>
      <text value="height"/>
    </code>
    <valueQuantity>
      <value value="169.672"/>
      <unit value="cm"/>
      <system value="http://unitsofmeasure.org" />
      <code value="cm"/>
    </valueQuantity>
    
    <effectiveDateTime value="2005-05-02"/>
    <status value="final"/>
    <subject>
      <reference value="Patient/981968"/>
    </subject>
    <encounter>
      <reference value="Encounter/138"/>
    </encounter>
    
  </Observation>
  
  </resource>
  <request>
    <method value="POST"/>
    <url value="Observation/138-height"/>
  </request>
</entry>
<entry>
  <resource>
    
    
  <Observation>
  <id value="138-heartrate"/>
    <text>
      <status value="generated"/>
      <div xmlns="http://www.w3.org/1999/xhtml">2005-05-02: heart_rate = 81.0 {beats}/min</div>
    </text>
    <code>
      <coding>
        <system value="http://loinc.org"/>
        <code value="8867-4"/>
        <display value="heart_rate"/>
      </coding>
      <text value="heart_rate"/>
    </code>
    <valueQuantity>
      <value value="81.0"/>
      <unit value="{beats}/min"/>
      <system value="http://unitsofmeasure.org" />
      <code value="{beats}/min"/>
    </valueQuantity>
    
    <effectiveDateTime value="2005-05-02"/>
    <status value="final"/>
    <subject>
      <reference value="Patient/981968"/>
    </subject>
    <encounter>
      <reference value="Encounter/138"/>
    </encounter>
    
  </Observation>
  
  </resource>
  <request>
    <method value="POST"/>
    <url value="Observation/138-heartrate"/>
  </request>
</entry>
<entry>
  <resource>
    
    
  <Observation>
  <id value="138-respiratoryrate"/>
    <text>
      <status value="generated"/>
      <div xmlns="http://www.w3.org/1999/xhtml">2005-05-02: respiratory_rate = 15.0 {breaths}/min</div>
    </text>
    <code>
      <coding>
        <system value="http://loinc.org"/>
        <code value="9279-1"/>
        <display value="respiratory_rate"/>
      </coding>
      <text value="respiratory_rate"/>
    </code>
    <valueQuantity>
      <value value="15.0"/>
      <unit value="{breaths}/min"/>
      <system value="http://unitsofmeasure.org" />
      <code value="{breaths}/min"/>
    </valueQuantity>
    
    <effectiveDateTime value="2005-05-02"/>
    <status value="final"/>
    <subject>
      <reference value="Patient/981968"/>
    </subject>
    <encounter>
      <reference value="Encounter/138"/>
    </encounter>
    
  </Observation>
  
  </resource>
  <request>
    <method value="POST"/>
    <url value="Observation/138-respiratoryrate"/>
  </request>
</entry>
<entry>
  <resource>
    
    
  <Observation>
  <id value="138-temperature"/>
    <text>
      <status value="generated"/>
      <div xmlns="http://www.w3.org/1999/xhtml">2005-05-02: temperature = 36.05556 Cel</div>
    </text>
    <code>
      <coding>
        <system value="http://loinc.org"/>
        <code value="8310-5"/>
        <display value="temperature"/>
      </coding>
      <text value="temperature"/>
    </code>
    <valueQuantity>
      <value value="36.05556"/>
      <unit value="Cel"/>
      <system value="http://unitsofmeasure.org" />
      <code value="Cel"/>
    </valueQuantity>
    
    <effectiveDateTime value="2005-05-02"/>
    <status value="final"/>
    <subject>
      <reference value="Patient/981968"/>
    </subject>
    <encounter>
      <reference value="Encounter/138"/>
    </encounter>
    
  </Observation>
  
  </resource>
  <request>
    <method value="POST"/>
    <url value="Observation/138-temperature"/>
  </request>
</entry>
<entry>
  <resource>
    
    
  <Observation>
  <id value="138-weight"/>
    <text>
      <status value="generated"/>
      <div xmlns="http://www.w3.org/1999/xhtml">2005-05-02: weight = 89.49377 kg</div>
    </text>
    <code>
      <coding>
        <system value="http://loinc.org"/>
        <code value="3141-9"/>
        <display value="weight"/>
      </coding>
      <text value="weight"/>
    </code>
    <valueQuantity>
      <value value="89.49377"/>
      <unit value="kg"/>
      <system value="http://unitsofmeasure.org" />
      <code value="kg"/>
    </valueQuantity>
    
    <effectiveDateTime value="2005-05-02"/>
    <status value="final"/>
    <subject>
      <reference value="Patient/981968"/>
    </subject>
    <encounter>
      <reference value="Encounter/138"/>
    </encounter>
    
  </Observation>
  
  </resource>
  <request>
    <method value="POST"/>
    <url value="Observation/138-weight"/>
  </request>
</entry>
<entry>
  <resource>
    
    
  <Observation>
  <id value="138-bmi"/>
    <text>
      <status value="generated"/>
      <div xmlns="http://www.w3.org/1999/xhtml">2005-05-02: bmi = 31.1 kg/m2</div>
    </text>
    <code>
      <coding>
        <system value="http://loinc.org"/>
        <code value="39156-5"/>
        <display value="bmi"/>
      </coding>
      <text value="bmi"/>
    </code>
    <valueQuantity>
      <value value="31.1"/>
      <unit value="kg/m2"/>
      <system value="http://unitsofmeasure.org" />
      <code value="kg/m2"/>
    </valueQuantity>
    
    <effectiveDateTime value="2005-05-02"/>
    <status value="final"/>
    <subject>
      <reference value="Patient/981968"/>
    </subject>
    <encounter>
      <reference value="Encounter/138"/>
    </encounter>
    
  </Observation>
  
  </resource>
  <request>
    <method value="POST"/>
    <url value="Observation/138-bmi"/>
  </request>
</entry>
<entry>
  <resource>
    
    
  <Observation>
  <id value="138-oxygensaturation"/>
    <text>
      <status value="generated"/>
      <div xmlns="http://www.w3.org/1999/xhtml">2005-05-02: oxygen_saturation = 95.0 %{HemoglobinSaturation}</div>
    </text>
    <code>
      <coding>
        <system value="http://loinc.org"/>
        <code value="2710-2"/>
        <display value="oxygen_saturation"/>
      </coding>
      <text value="oxygen_saturation"/>
    </code>
    <valueQuantity>
      <value value="95.0"/>
      <unit value="%{HemoglobinSaturation}"/>
      <system value="http://unitsofmeasure.org" />
      <code value="%{HemoglobinSaturation}"/>
    </valueQuantity>
    
    <effectiveDateTime value="2005-05-02"/>
    <status value="final"/>
    <subject>
      <reference value="Patient/981968"/>
    </subject>
    <encounter>
      <reference value="Encounter/138"/>
    </encounter>
    
  </Observation>
  
  </resource>
  <request>
    <method value="POST"/>
    <url value="Observation/138-oxygensaturation"/>
  </request>
</entry>
<entry>
  <resource>
    
    
  <Observation>
  <id value="139-height"/>
    <text>
      <status value="generated"/>
      <div xmlns="http://www.w3.org/1999/xhtml">2005-05-25: height = 169.672 cm</div>
    </text>
    <code>
      <coding>
        <system value="http://loinc.org"/>
        <code value="8302-2"/>
        <display value="height"/>
      </coding>
      <text value="height"/>
    </code>
    <valueQuantity>
      <value value="169.672"/>
      <unit value="cm"/>
      <system value="http://unitsofmeasure.org" />
      <code value="cm"/>
    </valueQuantity>
    
    <effectiveDateTime value="2005-05-25"/>
    <status value="final"/>
    <subject>
      <reference value="Patient/981968"/>
    </subject>
    <encounter>
      <reference value="Encounter/139"/>
    </encounter>
    
  </Observation>
  
  </resource>
  <request>
    <method value="POST"/>
    <url value="Observation/139-height"/>
  </request>
</entry>
<entry>
  <resource>
    
    
  <Observation>
  <id value="139-heartrate"/>
    <text>
      <status value="generated"/>
      <div xmlns="http://www.w3.org/1999/xhtml">2005-05-25: heart_rate = 87.0 {beats}/min</div>
    </text>
    <code>
      <coding>
        <system value="http://loinc.org"/>
        <code value="8867-4"/>
        <display value="heart_rate"/>
      </coding>
      <text value="heart_rate"/>
    </code>
    <valueQuantity>
      <value value="87.0"/>
      <unit value="{beats}/min"/>
      <system value="http://unitsofmeasure.org" />
      <code value="{beats}/min"/>
    </valueQuantity>
    
    <effectiveDateTime value="2005-05-25"/>
    <status value="final"/>
    <subject>
      <reference value="Patient/981968"/>
    </subject>
    <encounter>
      <reference value="Encounter/139"/>
    </encounter>
    
  </Observation>
  
  </resource>
  <request>
    <method value="POST"/>
    <url value="Observation/139-heartrate"/>
  </request>
</entry>
<entry>
  <resource>
    
    
  <Observation>
  <id value="139-respiratoryrate"/>
    <text>
      <status value="generated"/>
      <div xmlns="http://www.w3.org/1999/xhtml">2005-05-25: respiratory_rate = 16.0 {breaths}/min</div>
    </text>
    <code>
      <coding>
        <system value="http://loinc.org"/>
        <code value="9279-1"/>
        <display value="respiratory_rate"/>
      </coding>
      <text value="respiratory_rate"/>
    </code>
    <valueQuantity>
      <value value="16.0"/>
      <unit value="{breaths}/min"/>
      <system value="http://unitsofmeasure.org" />
      <code value="{breaths}/min"/>
    </valueQuantity>
    
    <effectiveDateTime value="2005-05-25"/>
    <status value="final"/>
    <subject>
      <reference value="Patient/981968"/>
    </subject>
    <encounter>
      <reference value="Encounter/139"/>
    </encounter>
    
  </Observation>
  
  </resource>
  <request>
    <method value="POST"/>
    <url value="Observation/139-respiratoryrate"/>
  </request>
</entry>
<entry>
  <resource>
    
    
  <Observation>
  <id value="139-temperature"/>
    <text>
      <status value="generated"/>
      <div xmlns="http://www.w3.org/1999/xhtml">2005-05-25: temperature = 36.11111 Cel</div>
    </text>
    <code>
      <coding>
        <system value="http://loinc.org"/>
        <code value="8310-5"/>
        <display value="temperature"/>
      </coding>
      <text value="temperature"/>
    </code>
    <valueQuantity>
      <value value="36.11111"/>
      <unit value="Cel"/>
      <system value="http://unitsofmeasure.org" />
      <code value="Cel"/>
    </valueQuantity>
    
    <effectiveDateTime value="2005-05-25"/>
    <status value="final"/>
    <subject>
      <reference value="Patient/981968"/>
    </subject>
    <encounter>
      <reference value="Encounter/139"/>
    </encounter>
    
  </Observation>
  
  </resource>
  <request>
    <method value="POST"/>
    <url value="Observation/139-temperature"/>
  </request>
</entry>
<entry>
  <resource>
    
    
  <Observation>
  <id value="139-weight"/>
    <text>
      <status value="generated"/>
      <div xmlns="http://www.w3.org/1999/xhtml">2005-05-25: weight = 88.9041 kg</div>
    </text>
    <code>
      <coding>
        <system value="http://loinc.org"/>
        <code value="3141-9"/>
        <display value="weight"/>
      </coding>
      <text value="weight"/>
    </code>
    <valueQuantity>
      <value value="88.9041"/>
      <unit value="kg"/>
      <system value="http://unitsofmeasure.org" />
      <code value="kg"/>
    </valueQuantity>
    
    <effectiveDateTime value="2005-05-25"/>
    <status value="final"/>
    <subject>
      <reference value="Patient/981968"/>
    </subject>
    <encounter>
      <reference value="Encounter/139"/>
    </encounter>
    
  </Observation>
  
  </resource>
  <request>
    <method value="POST"/>
    <url value="Observation/139-weight"/>
  </request>
</entry>
<entry>
  <resource>
    
    
  <Observation>
  <id value="139-bmi"/>
    <text>
      <status value="generated"/>
      <div xmlns="http://www.w3.org/1999/xhtml">2005-05-25: bmi = 30.8 kg/m2</div>
    </text>
    <code>
      <coding>
        <system value="http://loinc.org"/>
        <code value="39156-5"/>
        <display value="bmi"/>
      </coding>
      <text value="bmi"/>
    </code>
    <valueQuantity>
      <value value="30.8"/>
      <unit value="kg/m2"/>
      <system value="http://unitsofmeasure.org" />
      <code value="kg/m2"/>
    </valueQuantity>
    
    <effectiveDateTime value="2005-05-25"/>
    <status value="final"/>
    <subject>
      <reference value="Patient/981968"/>
    </subject>
    <encounter>
      <reference value="Encounter/139"/>
    </encounter>
    
  </Observation>
  
  </resource>
  <request>
    <method value="POST"/>
    <url value="Observation/139-bmi"/>
  </request>
</entry>
<entry>
  <resource>
    
    
  <Observation>
  <id value="139-oxygensaturation"/>
    <text>
      <status value="generated"/>
      <div xmlns="http://www.w3.org/1999/xhtml">2005-05-25: oxygen_saturation = 95.0 %{HemoglobinSaturation}</div>
    </text>
    <code>
      <coding>
        <system value="http://loinc.org"/>
        <code value="2710-2"/>
        <display value="oxygen_saturation"/>
      </coding>
      <text value="oxygen_saturation"/>
    </code>
    <valueQuantity>
      <value value="95.0"/>
      <unit value="%{HemoglobinSaturation}"/>
      <system value="http://unitsofmeasure.org" />
      <code value="%{HemoglobinSaturation}"/>
    </valueQuantity>
    
    <effectiveDateTime value="2005-05-25"/>
    <status value="final"/>
    <subject>
      <reference value="Patient/981968"/>
    </subject>
    <encounter>
      <reference value="Encounter/139"/>
    </encounter>
    
  </Observation>
  
  </resource>
  <request>
    <method value="POST"/>
    <url value="Observation/139-oxygensaturation"/>
  </request>
</entry>
<entry>
  <resource>
    
    
  <Observation>
  <id value="140-height"/>
    <text>
      <status value="generated"/>
      <div xmlns="http://www.w3.org/1999/xhtml">2008-11-24: height = 169.164 cm</div>
    </text>
    <code>
      <coding>
        <system value="http://loinc.org"/>
        <code value="8302-2"/>
        <display value="height"/>
      </coding>
      <text value="height"/>
    </code>
    <valueQuantity>
      <value value="169.164"/>
      <unit value="cm"/>
      <system value="http://unitsofmeasure.org" />
      <code value="cm"/>
    </valueQuantity>
    
    <effectiveDateTime value="2008-11-24"/>
    <status value="final"/>
    <subject>
      <reference value="Patient/981968"/>
    </subject>
    <encounter>
      <reference value="Encounter/140"/>
    </encounter>
    
  </Observation>
  
  </resource>
  <request>
    <method value="POST"/>
    <url value="Observation/140-height"/>
  </request>
</entry>
<entry>
  <resource>
    
    
  <Observation>
  <id value="140-heartrate"/>
    <text>
      <status value="generated"/>
      <div xmlns="http://www.w3.org/1999/xhtml">2008-11-24: heart_rate = 86.0 {beats}/min</div>
    </text>
    <code>
      <coding>
        <system value="http://loinc.org"/>
        <code value="8867-4"/>
        <display value="heart_rate"/>
      </coding>
      <text value="heart_rate"/>
    </code>
    <valueQuantity>
      <value value="86.0"/>
      <unit value="{beats}/min"/>
      <system value="http://unitsofmeasure.org" />
      <code value="{beats}/min"/>
    </valueQuantity>
    
    <effectiveDateTime value="2008-11-24"/>
    <status value="final"/>
    <subject>
      <reference value="Patient/981968"/>
    </subject>
    <encounter>
      <reference value="Encounter/140"/>
    </encounter>
    
  </Observation>
  
  </resource>
  <request>
    <method value="POST"/>
    <url value="Observation/140-heartrate"/>
  </request>
</entry>
<entry>
  <resource>
    
    
  <Observation>
  <id value="140-respiratoryrate"/>
    <text>
      <status value="generated"/>
      <div xmlns="http://www.w3.org/1999/xhtml">2008-11-24: respiratory_rate = 16.0 {breaths}/min</div>
    </text>
    <code>
      <coding>
        <system value="http://loinc.org"/>
        <code value="9279-1"/>
        <display value="respiratory_rate"/>
      </coding>
      <text value="respiratory_rate"/>
    </code>
    <valueQuantity>
      <value value="16.0"/>
      <unit value="{breaths}/min"/>
      <system value="http://unitsofmeasure.org" />
      <code value="{breaths}/min"/>
    </valueQuantity>
    
    <effectiveDateTime value="2008-11-24"/>
    <status value="final"/>
    <subject>
      <reference value="Patient/981968"/>
    </subject>
    <encounter>
      <reference value="Encounter/140"/>
    </encounter>
    
  </Observation>
  
  </resource>
  <request>
    <method value="POST"/>
    <url value="Observation/140-respiratoryrate"/>
  </request>
</entry>
<entry>
  <resource>
    
    
  <Observation>
  <id value="140-temperature"/>
    <text>
      <status value="generated"/>
      <div xmlns="http://www.w3.org/1999/xhtml">2008-11-24: temperature = 36.05556 Cel</div>
    </text>
    <code>
      <coding>
        <system value="http://loinc.org"/>
        <code value="8310-5"/>
        <display value="temperature"/>
      </coding>
      <text value="temperature"/>
    </code>
    <valueQuantity>
      <value value="36.05556"/>
      <unit value="Cel"/>
      <system value="http://unitsofmeasure.org" />
      <code value="Cel"/>
    </valueQuantity>
    
    <effectiveDateTime value="2008-11-24"/>
    <status value="final"/>
    <subject>
      <reference value="Patient/981968"/>
    </subject>
    <encounter>
      <reference value="Encounter/140"/>
    </encounter>
    
  </Observation>
  
  </resource>
  <request>
    <method value="POST"/>
    <url value="Observation/140-temperature"/>
  </request>
</entry>
<entry>
  <resource>
    
    
  <Observation>
  <id value="140-weight"/>
    <text>
      <status value="generated"/>
      <div xmlns="http://www.w3.org/1999/xhtml">2008-11-24: weight = 88.35979 kg</div>
    </text>
    <code>
      <coding>
        <system value="http://loinc.org"/>
        <code value="3141-9"/>
        <display value="weight"/>
      </coding>
      <text value="weight"/>
    </code>
    <valueQuantity>
      <value value="88.35979"/>
      <unit value="kg"/>
      <system value="http://unitsofmeasure.org" />
      <code value="kg"/>
    </valueQuantity>
    
    <effectiveDateTime value="2008-11-24"/>
    <status value="final"/>
    <subject>
      <reference value="Patient/981968"/>
    </subject>
    <encounter>
      <reference value="Encounter/140"/>
    </encounter>
    
  </Observation>
  
  </resource>
  <request>
    <method value="POST"/>
    <url value="Observation/140-weight"/>
  </request>
</entry>
<entry>
  <resource>
    
    
  <Observation>
  <id value="140-bmi"/>
    <text>
      <status value="generated"/>
      <div xmlns="http://www.w3.org/1999/xhtml">2008-11-24: bmi = 30.8 kg/m2</div>
    </text>
    <code>
      <coding>
        <system value="http://loinc.org"/>
        <code value="39156-5"/>
        <display value="bmi"/>
      </coding>
      <text value="bmi"/>
    </code>
    <valueQuantity>
      <value value="30.8"/>
      <unit value="kg/m2"/>
      <system value="http://unitsofmeasure.org" />
      <code value="kg/m2"/>
    </valueQuantity>
    
    <effectiveDateTime value="2008-11-24"/>
    <status value="final"/>
    <subject>
      <reference value="Patient/981968"/>
    </subject>
    <encounter>
      <reference value="Encounter/140"/>
    </encounter>
    
  </Observation>
  
  </resource>
  <request>
    <method value="POST"/>
    <url value="Observation/140-bmi"/>
  </request>
</entry>
<entry>
  <resource>
    
    
  <Observation>
  <id value="140-oxygensaturation"/>
    <text>
      <status value="generated"/>
      <div xmlns="http://www.w3.org/1999/xhtml">2008-11-24: oxygen_saturation = 96.0 %{HemoglobinSaturation}</div>
    </text>
    <code>
      <coding>
        <system value="http://loinc.org"/>
        <code value="2710-2"/>
        <display value="oxygen_saturation"/>
      </coding>
      <text value="oxygen_saturation"/>
    </code>
    <valueQuantity>
      <value value="96.0"/>
      <unit value="%{HemoglobinSaturation}"/>
      <system value="http://unitsofmeasure.org" />
      <code value="%{HemoglobinSaturation}"/>
    </valueQuantity>
    
    <effectiveDateTime value="2008-11-24"/>
    <status value="final"/>
    <subject>
      <reference value="Patient/981968"/>
    </subject>
    <encounter>
      <reference value="Encounter/140"/>
    </encounter>
    
  </Observation>
  
  </resource>
  <request>
    <method value="POST"/>
    <url value="Observation/140-oxygensaturation"/>
  </request>
</entry>
<entry>
  <resource>
    
    
  <Observation>
  <id value="141-height"/>
    <text>
      <status value="generated"/>
      <div xmlns="http://www.w3.org/1999/xhtml">2008-11-25: height = 168.91 cm</div>
    </text>
    <code>
      <coding>
        <system value="http://loinc.org"/>
        <code value="8302-2"/>
        <display value="height"/>
      </coding>
      <text value="height"/>
    </code>
    <valueQuantity>
      <value value="168.91"/>
      <unit value="cm"/>
      <system value="http://unitsofmeasure.org" />
      <code value="cm"/>
    </valueQuantity>
    
    <effectiveDateTime value="2008-11-25"/>
    <status value="final"/>
    <subject>
      <reference value="Patient/981968"/>
    </subject>
    <encounter>
      <reference value="Encounter/141"/>
    </encounter>
    
  </Observation>
  
  </resource>
  <request>
    <method value="POST"/>
    <url value="Observation/141-height"/>
  </request>
</entry>
<entry>
  <resource>
    
    
  <Observation>
  <id value="141-heartrate"/>
    <text>
      <status value="generated"/>
      <div xmlns="http://www.w3.org/1999/xhtml">2008-11-25: heart_rate = 77.0 {beats}/min</div>
    </text>
    <code>
      <coding>
        <system value="http://loinc.org"/>
        <code value="8867-4"/>
        <display value="heart_rate"/>
      </coding>
      <text value="heart_rate"/>
    </code>
    <valueQuantity>
      <value value="77.0"/>
      <unit value="{beats}/min"/>
      <system value="http://unitsofmeasure.org" />
      <code value="{beats}/min"/>
    </valueQuantity>
    
    <effectiveDateTime value="2008-11-25"/>
    <status value="final"/>
    <subject>
      <reference value="Patient/981968"/>
    </subject>
    <encounter>
      <reference value="Encounter/141"/>
    </encounter>
    
  </Observation>
  
  </resource>
  <request>
    <method value="POST"/>
    <url value="Observation/141-heartrate"/>
  </request>
</entry>
<entry>
  <resource>
    
    
  <Observation>
  <id value="141-respiratoryrate"/>
    <text>
      <status value="generated"/>
      <div xmlns="http://www.w3.org/1999/xhtml">2008-11-25: respiratory_rate = 16.0 {breaths}/min</div>
    </text>
    <code>
      <coding>
        <system value="http://loinc.org"/>
        <code value="9279-1"/>
        <display value="respiratory_rate"/>
      </coding>
      <text value="respiratory_rate"/>
    </code>
    <valueQuantity>
      <value value="16.0"/>
      <unit value="{breaths}/min"/>
      <system value="http://unitsofmeasure.org" />
      <code value="{breaths}/min"/>
    </valueQuantity>
    
    <effectiveDateTime value="2008-11-25"/>
    <status value="final"/>
    <subject>
      <reference value="Patient/981968"/>
    </subject>
    <encounter>
      <reference value="Encounter/141"/>
    </encounter>
    
  </Observation>
  
  </resource>
  <request>
    <method value="POST"/>
    <url value="Observation/141-respiratoryrate"/>
  </request>
</entry>
<entry>
  <resource>
    
    
  <Observation>
  <id value="141-temperature"/>
    <text>
      <status value="generated"/>
      <div xmlns="http://www.w3.org/1999/xhtml">2008-11-25: temperature = 36.05556 Cel</div>
    </text>
    <code>
      <coding>
        <system value="http://loinc.org"/>
        <code value="8310-5"/>
        <display value="temperature"/>
      </coding>
      <text value="temperature"/>
    </code>
    <valueQuantity>
      <value value="36.05556"/>
      <unit value="Cel"/>
      <system value="http://unitsofmeasure.org" />
      <code value="Cel"/>
    </valueQuantity>
    
    <effectiveDateTime value="2008-11-25"/>
    <status value="final"/>
    <subject>
      <reference value="Patient/981968"/>
    </subject>
    <encounter>
      <reference value="Encounter/141"/>
    </encounter>
    
  </Observation>
  
  </resource>
  <request>
    <method value="POST"/>
    <url value="Observation/141-temperature"/>
  </request>
</entry>
<entry>
  <resource>
    
    
  <Observation>
  <id value="141-weight"/>
    <text>
      <status value="generated"/>
      <div xmlns="http://www.w3.org/1999/xhtml">2008-11-25: weight = 87.40725 kg</div>
    </text>
    <code>
      <coding>
        <system value="http://loinc.org"/>
        <code value="3141-9"/>
        <display value="weight"/>
      </coding>
      <text value="weight"/>
    </code>
    <valueQuantity>
      <value value="87.40725"/>
      <unit value="kg"/>
      <system value="http://unitsofmeasure.org" />
      <code value="kg"/>
    </valueQuantity>
    
    <effectiveDateTime value="2008-11-25"/>
    <status value="final"/>
    <subject>
      <reference value="Patient/981968"/>
    </subject>
    <encounter>
      <reference value="Encounter/141"/>
    </encounter>
    
  </Observation>
  
  </resource>
  <request>
    <method value="POST"/>
    <url value="Observation/141-weight"/>
  </request>
</entry>
<entry>
  <resource>
    
    
  <Observation>
  <id value="141-bmi"/>
    <text>
      <status value="generated"/>
      <div xmlns="http://www.w3.org/1999/xhtml">2008-11-25: bmi = 30.6 kg/m2</div>
    </text>
    <code>
      <coding>
        <system value="http://loinc.org"/>
        <code value="39156-5"/>
        <display value="bmi"/>
      </coding>
      <text value="bmi"/>
    </code>
    <valueQuantity>
      <value value="30.6"/>
      <unit value="kg/m2"/>
      <system value="http://unitsofmeasure.org" />
      <code value="kg/m2"/>
    </valueQuantity>
    
    <effectiveDateTime value="2008-11-25"/>
    <status value="final"/>
    <subject>
      <reference value="Patient/981968"/>
    </subject>
    <encounter>
      <reference value="Encounter/141"/>
    </encounter>
    
  </Observation>
  
  </resource>
  <request>
    <method value="POST"/>
    <url value="Observation/141-bmi"/>
  </request>
</entry>
<entry>
  <resource>
    
    
  <Observation>
  <id value="141-oxygensaturation"/>
    <text>
      <status value="generated"/>
      <div xmlns="http://www.w3.org/1999/xhtml">2008-11-25: oxygen_saturation = 96.0 %{HemoglobinSaturation}</div>
    </text>
    <code>
      <coding>
        <system value="http://loinc.org"/>
        <code value="2710-2"/>
        <display value="oxygen_saturation"/>
      </coding>
      <text value="oxygen_saturation"/>
    </code>
    <valueQuantity>
      <value value="96.0"/>
      <unit value="%{HemoglobinSaturation}"/>
      <system value="http://unitsofmeasure.org" />
      <code value="%{HemoglobinSaturation}"/>
    </valueQuantity>
    
    <effectiveDateTime value="2008-11-25"/>
    <status value="final"/>
    <subject>
      <reference value="Patient/981968"/>
    </subject>
    <encounter>
      <reference value="Encounter/141"/>
    </encounter>
    
  </Observation>
  
  </resource>
  <request>
    <method value="POST"/>
    <url value="Observation/141-oxygensaturation"/>
  </request>
</entry>
<entry>
  <resource>
    
    
  <Observation>
  <id value="142-height"/>
    <text>
      <status value="generated"/>
      <div xmlns="http://www.w3.org/1999/xhtml">2008-11-28: height = 168.91 cm</div>
    </text>
    <code>
      <coding>
        <system value="http://loinc.org"/>
        <code value="8302-2"/>
        <display value="height"/>
      </coding>
      <text value="height"/>
    </code>
    <valueQuantity>
      <value value="168.91"/>
      <unit value="cm"/>
      <system value="http://unitsofmeasure.org" />
      <code value="cm"/>
    </valueQuantity>
    
    <effectiveDateTime value="2008-11-28"/>
    <status value="final"/>
    <subject>
      <reference value="Patient/981968"/>
    </subject>
    <encounter>
      <reference value="Encounter/142"/>
    </encounter>
    
  </Observation>
  
  </resource>
  <request>
    <method value="POST"/>
    <url value="Observation/142-height"/>
  </request>
</entry>
<entry>
  <resource>
    
    
  <Observation>
  <id value="142-heartrate"/>
    <text>
      <status value="generated"/>
      <div xmlns="http://www.w3.org/1999/xhtml">2008-11-28: heart_rate = 109.0 {beats}/min</div>
    </text>
    <code>
      <coding>
        <system value="http://loinc.org"/>
        <code value="8867-4"/>
        <display value="heart_rate"/>
      </coding>
      <text value="heart_rate"/>
    </code>
    <valueQuantity>
      <value value="109.0"/>
      <unit value="{beats}/min"/>
      <system value="http://unitsofmeasure.org" />
      <code value="{beats}/min"/>
    </valueQuantity>
    
    <effectiveDateTime value="2008-11-28"/>
    <status value="final"/>
    <subject>
      <reference value="Patient/981968"/>
    </subject>
    <encounter>
      <reference value="Encounter/142"/>
    </encounter>
    
  </Observation>
  
  </resource>
  <request>
    <method value="POST"/>
    <url value="Observation/142-heartrate"/>
  </request>
</entry>
<entry>
  <resource>
    
    
  <Observation>
  <id value="142-respiratoryrate"/>
    <text>
      <status value="generated"/>
      <div xmlns="http://www.w3.org/1999/xhtml">2008-11-28: respiratory_rate = 16.0 {breaths}/min</div>
    </text>
    <code>
      <coding>
        <system value="http://loinc.org"/>
        <code value="9279-1"/>
        <display value="respiratory_rate"/>
      </coding>
      <text value="respiratory_rate"/>
    </code>
    <valueQuantity>
      <value value="16.0"/>
      <unit value="{breaths}/min"/>
      <system value="http://unitsofmeasure.org" />
      <code value="{breaths}/min"/>
    </valueQuantity>
    
    <effectiveDateTime value="2008-11-28"/>
    <status value="final"/>
    <subject>
      <reference value="Patient/981968"/>
    </subject>
    <encounter>
      <reference value="Encounter/142"/>
    </encounter>
    
  </Observation>
  
  </resource>
  <request>
    <method value="POST"/>
    <url value="Observation/142-respiratoryrate"/>
  </request>
</entry>
<entry>
  <resource>
    
    
  <Observation>
  <id value="142-temperature"/>
    <text>
      <status value="generated"/>
      <div xmlns="http://www.w3.org/1999/xhtml">2008-11-28: temperature = 36.05556 Cel</div>
    </text>
    <code>
      <coding>
        <system value="http://loinc.org"/>
        <code value="8310-5"/>
        <display value="temperature"/>
      </coding>
      <text value="temperature"/>
    </code>
    <valueQuantity>
      <value value="36.05556"/>
      <unit value="Cel"/>
      <system value="http://unitsofmeasure.org" />
      <code value="Cel"/>
    </valueQuantity>
    
    <effectiveDateTime value="2008-11-28"/>
    <status value="final"/>
    <subject>
      <reference value="Patient/981968"/>
    </subject>
    <encounter>
      <reference value="Encounter/142"/>
    </encounter>
    
  </Observation>
  
  </resource>
  <request>
    <method value="POST"/>
    <url value="Observation/142-temperature"/>
  </request>
</entry>
<entry>
  <resource>
    
    
  <Observation>
  <id value="142-weight"/>
    <text>
      <status value="generated"/>
      <div xmlns="http://www.w3.org/1999/xhtml">2008-11-28: weight = 88.35979 kg</div>
    </text>
    <code>
      <coding>
        <system value="http://loinc.org"/>
        <code value="3141-9"/>
        <display value="weight"/>
      </coding>
      <text value="weight"/>
    </code>
    <valueQuantity>
      <value value="88.35979"/>
      <unit value="kg"/>
      <system value="http://unitsofmeasure.org" />
      <code value="kg"/>
    </valueQuantity>
    
    <effectiveDateTime value="2008-11-28"/>
    <status value="final"/>
    <subject>
      <reference value="Patient/981968"/>
    </subject>
    <encounter>
      <reference value="Encounter/142"/>
    </encounter>
    
  </Observation>
  
  </resource>
  <request>
    <method value="POST"/>
    <url value="Observation/142-weight"/>
  </request>
</entry>
<entry>
  <resource>
    
    
  <Observation>
  <id value="142-bmi"/>
    <text>
      <status value="generated"/>
      <div xmlns="http://www.w3.org/1999/xhtml">2008-11-28: bmi = 30.9 kg/m2</div>
    </text>
    <code>
      <coding>
        <system value="http://loinc.org"/>
        <code value="39156-5"/>
        <display value="bmi"/>
      </coding>
      <text value="bmi"/>
    </code>
    <valueQuantity>
      <value value="30.9"/>
      <unit value="kg/m2"/>
      <system value="http://unitsofmeasure.org" />
      <code value="kg/m2"/>
    </valueQuantity>
    
    <effectiveDateTime value="2008-11-28"/>
    <status value="final"/>
    <subject>
      <reference value="Patient/981968"/>
    </subject>
    <encounter>
      <reference value="Encounter/142"/>
    </encounter>
    
  </Observation>
  
  </resource>
  <request>
    <method value="POST"/>
    <url value="Observation/142-bmi"/>
  </request>
</entry>
<entry>
  <resource>
    
    
  <Observation>
  <id value="142-oxygensaturation"/>
    <text>
      <status value="generated"/>
      <div xmlns="http://www.w3.org/1999/xhtml">2008-11-28: oxygen_saturation = 96.0 %{HemoglobinSaturation}</div>
    </text>
    <code>
      <coding>
        <system value="http://loinc.org"/>
        <code value="2710-2"/>
        <display value="oxygen_saturation"/>
      </coding>
      <text value="oxygen_saturation"/>
    </code>
    <valueQuantity>
      <value value="96.0"/>
      <unit value="%{HemoglobinSaturation}"/>
      <system value="http://unitsofmeasure.org" />
      <code value="%{HemoglobinSaturation}"/>
    </valueQuantity>
    
    <effectiveDateTime value="2008-11-28"/>
    <status value="final"/>
    <subject>
      <reference value="Patient/981968"/>
    </subject>
    <encounter>
      <reference value="Encounter/142"/>
    </encounter>
    
  </Observation>
  
  </resource>
  <request>
    <method value="POST"/>
    <url value="Observation/142-oxygensaturation"/>
  </request>
</entry>
<entry>
  <resource>
    
    
  <Observation>
  <id value="143-height"/>
    <text>
      <status value="generated"/>
      <div xmlns="http://www.w3.org/1999/xhtml">2009-05-11: height = 169.164 cm</div>
    </text>
    <code>
      <coding>
        <system value="http://loinc.org"/>
        <code value="8302-2"/>
        <display value="height"/>
      </coding>
      <text value="height"/>
    </code>
    <valueQuantity>
      <value value="169.164"/>
      <unit value="cm"/>
      <system value="http://unitsofmeasure.org" />
      <code value="cm"/>
    </valueQuantity>
    
    <effectiveDateTime value="2009-05-11"/>
    <status value="final"/>
    <subject>
      <reference value="Patient/981968"/>
    </subject>
    <encounter>
      <reference value="Encounter/143"/>
    </encounter>
    
  </Observation>
  
  </resource>
  <request>
    <method value="POST"/>
    <url value="Observation/143-height"/>
  </request>
</entry>
<entry>
  <resource>
    
    
  <Observation>
  <id value="143-heartrate"/>
    <text>
      <status value="generated"/>
      <div xmlns="http://www.w3.org/1999/xhtml">2009-05-11: heart_rate = 102.0 {beats}/min</div>
    </text>
    <code>
      <coding>
        <system value="http://loinc.org"/>
        <code value="8867-4"/>
        <display value="heart_rate"/>
      </coding>
      <text value="heart_rate"/>
    </code>
    <valueQuantity>
      <value value="102.0"/>
      <unit value="{beats}/min"/>
      <system value="http://unitsofmeasure.org" />
      <code value="{beats}/min"/>
    </valueQuantity>
    
    <effectiveDateTime value="2009-05-11"/>
    <status value="final"/>
    <subject>
      <reference value="Patient/981968"/>
    </subject>
    <encounter>
      <reference value="Encounter/143"/>
    </encounter>
    
  </Observation>
  
  </resource>
  <request>
    <method value="POST"/>
    <url value="Observation/143-heartrate"/>
  </request>
</entry>
<entry>
  <resource>
    
    
  <Observation>
  <id value="143-respiratoryrate"/>
    <text>
      <status value="generated"/>
      <div xmlns="http://www.w3.org/1999/xhtml">2009-05-11: respiratory_rate = 16.0 {breaths}/min</div>
    </text>
    <code>
      <coding>
        <system value="http://loinc.org"/>
        <code value="9279-1"/>
        <display value="respiratory_rate"/>
      </coding>
      <text value="respiratory_rate"/>
    </code>
    <valueQuantity>
      <value value="16.0"/>
      <unit value="{breaths}/min"/>
      <system value="http://unitsofmeasure.org" />
      <code value="{breaths}/min"/>
    </valueQuantity>
    
    <effectiveDateTime value="2009-05-11"/>
    <status value="final"/>
    <subject>
      <reference value="Patient/981968"/>
    </subject>
    <encounter>
      <reference value="Encounter/143"/>
    </encounter>
    
  </Observation>
  
  </resource>
  <request>
    <method value="POST"/>
    <url value="Observation/143-respiratoryrate"/>
  </request>
</entry>
<entry>
  <resource>
    
    
  <Observation>
  <id value="143-temperature"/>
    <text>
      <status value="generated"/>
      <div xmlns="http://www.w3.org/1999/xhtml">2009-05-11: temperature = 36.05556 Cel</div>
    </text>
    <code>
      <coding>
        <system value="http://loinc.org"/>
        <code value="8310-5"/>
        <display value="temperature"/>
      </coding>
      <text value="temperature"/>
    </code>
    <valueQuantity>
      <value value="36.05556"/>
      <unit value="Cel"/>
      <system value="http://unitsofmeasure.org" />
      <code value="Cel"/>
    </valueQuantity>
    
    <effectiveDateTime value="2009-05-11"/>
    <status value="final"/>
    <subject>
      <reference value="Patient/981968"/>
    </subject>
    <encounter>
      <reference value="Encounter/143"/>
    </encounter>
    
  </Observation>
  
  </resource>
  <request>
    <method value="POST"/>
    <url value="Observation/143-temperature"/>
  </request>
</entry>
<entry>
  <resource>
    
    
  <Observation>
  <id value="143-weight"/>
    <text>
      <status value="generated"/>
      <div xmlns="http://www.w3.org/1999/xhtml">2009-05-11: weight = 87.95156 kg</div>
    </text>
    <code>
      <coding>
        <system value="http://loinc.org"/>
        <code value="3141-9"/>
        <display value="weight"/>
      </coding>
      <text value="weight"/>
    </code>
    <valueQuantity>
      <value value="87.95156"/>
      <unit value="kg"/>
      <system value="http://unitsofmeasure.org" />
      <code value="kg"/>
    </valueQuantity>
    
    <effectiveDateTime value="2009-05-11"/>
    <status value="final"/>
    <subject>
      <reference value="Patient/981968"/>
    </subject>
    <encounter>
      <reference value="Encounter/143"/>
    </encounter>
    
  </Observation>
  
  </resource>
  <request>
    <method value="POST"/>
    <url value="Observation/143-weight"/>
  </request>
</entry>
<entry>
  <resource>
    
    
  <Observation>
  <id value="143-bmi"/>
    <text>
      <status value="generated"/>
      <div xmlns="http://www.w3.org/1999/xhtml">2009-05-11: bmi = 30.7 kg/m2</div>
    </text>
    <code>
      <coding>
        <system value="http://loinc.org"/>
        <code value="39156-5"/>
        <display value="bmi"/>
      </coding>
      <text value="bmi"/>
    </code>
    <valueQuantity>
      <value value="30.7"/>
      <unit value="kg/m2"/>
      <system value="http://unitsofmeasure.org" />
      <code value="kg/m2"/>
    </valueQuantity>
    
    <effectiveDateTime value="2009-05-11"/>
    <status value="final"/>
    <subject>
      <reference value="Patient/981968"/>
    </subject>
    <encounter>
      <reference value="Encounter/143"/>
    </encounter>
    
  </Observation>
  
  </resource>
  <request>
    <method value="POST"/>
    <url value="Observation/143-bmi"/>
  </request>
</entry>
<entry>
  <resource>
    
    
  <Observation>
  <id value="143-oxygensaturation"/>
    <text>
      <status value="generated"/>
      <div xmlns="http://www.w3.org/1999/xhtml">2009-05-11: oxygen_saturation = 95.0 %{HemoglobinSaturation}</div>
    </text>
    <code>
      <coding>
        <system value="http://loinc.org"/>
        <code value="2710-2"/>
        <display value="oxygen_saturation"/>
      </coding>
      <text value="oxygen_saturation"/>
    </code>
    <valueQuantity>
      <value value="95.0"/>
      <unit value="%{HemoglobinSaturation}"/>
      <system value="http://unitsofmeasure.org" />
      <code value="%{HemoglobinSaturation}"/>
    </valueQuantity>
    
    <effectiveDateTime value="2009-05-11"/>
    <status value="final"/>
    <subject>
      <reference value="Patient/981968"/>
    </subject>
    <encounter>
      <reference value="Encounter/143"/>
    </encounter>
    
  </Observation>
  
  </resource>
  <request>
    <method value="POST"/>
    <url value="Observation/143-oxygensaturation"/>
  </request>
</entry>
<entry>
  <resource>
    
    
  <Observation>
  <id value="144-height"/>
    <text>
      <status value="generated"/>
      <div xmlns="http://www.w3.org/1999/xhtml">2009-05-13: height = 169.164 cm</div>
    </text>
    <code>
      <coding>
        <system value="http://loinc.org"/>
        <code value="8302-2"/>
        <display value="height"/>
      </coding>
      <text value="height"/>
    </code>
    <valueQuantity>
      <value value="169.164"/>
      <unit value="cm"/>
      <system value="http://unitsofmeasure.org" />
      <code value="cm"/>
    </valueQuantity>
    
    <effectiveDateTime value="2009-05-13"/>
    <status value="final"/>
    <subject>
      <reference value="Patient/981968"/>
    </subject>
    <encounter>
      <reference value="Encounter/144"/>
    </encounter>
    
  </Observation>
  
  </resource>
  <request>
    <method value="POST"/>
    <url value="Observation/144-height"/>
  </request>
</entry>
<entry>
  <resource>
    
    
  <Observation>
  <id value="144-heartrate"/>
    <text>
      <status value="generated"/>
      <div xmlns="http://www.w3.org/1999/xhtml">2009-05-13: heart_rate = 96.0 {beats}/min</div>
    </text>
    <code>
      <coding>
        <system value="http://loinc.org"/>
        <code value="8867-4"/>
        <display value="heart_rate"/>
      </coding>
      <text value="heart_rate"/>
    </code>
    <valueQuantity>
      <value value="96.0"/>
      <unit value="{beats}/min"/>
      <system value="http://unitsofmeasure.org" />
      <code value="{beats}/min"/>
    </valueQuantity>
    
    <effectiveDateTime value="2009-05-13"/>
    <status value="final"/>
    <subject>
      <reference value="Patient/981968"/>
    </subject>
    <encounter>
      <reference value="Encounter/144"/>
    </encounter>
    
  </Observation>
  
  </resource>
  <request>
    <method value="POST"/>
    <url value="Observation/144-heartrate"/>
  </request>
</entry>
<entry>
  <resource>
    
    
  <Observation>
  <id value="144-respiratoryrate"/>
    <text>
      <status value="generated"/>
      <div xmlns="http://www.w3.org/1999/xhtml">2009-05-13: respiratory_rate = 16.0 {breaths}/min</div>
    </text>
    <code>
      <coding>
        <system value="http://loinc.org"/>
        <code value="9279-1"/>
        <display value="respiratory_rate"/>
      </coding>
      <text value="respiratory_rate"/>
    </code>
    <valueQuantity>
      <value value="16.0"/>
      <unit value="{breaths}/min"/>
      <system value="http://unitsofmeasure.org" />
      <code value="{breaths}/min"/>
    </valueQuantity>
    
    <effectiveDateTime value="2009-05-13"/>
    <status value="final"/>
    <subject>
      <reference value="Patient/981968"/>
    </subject>
    <encounter>
      <reference value="Encounter/144"/>
    </encounter>
    
  </Observation>
  
  </resource>
  <request>
    <method value="POST"/>
    <url value="Observation/144-respiratoryrate"/>
  </request>
</entry>
<entry>
  <resource>
    
    
  <Observation>
  <id value="144-temperature"/>
    <text>
      <status value="generated"/>
      <div xmlns="http://www.w3.org/1999/xhtml">2009-05-13: temperature = 36.05556 Cel</div>
    </text>
    <code>
      <coding>
        <system value="http://loinc.org"/>
        <code value="8310-5"/>
        <display value="temperature"/>
      </coding>
      <text value="temperature"/>
    </code>
    <valueQuantity>
      <value value="36.05556"/>
      <unit value="Cel"/>
      <system value="http://unitsofmeasure.org" />
      <code value="Cel"/>
    </valueQuantity>
    
    <effectiveDateTime value="2009-05-13"/>
    <status value="final"/>
    <subject>
      <reference value="Patient/981968"/>
    </subject>
    <encounter>
      <reference value="Encounter/144"/>
    </encounter>
    
  </Observation>
  
  </resource>
  <request>
    <method value="POST"/>
    <url value="Observation/144-temperature"/>
  </request>
</entry>
<entry>
  <resource>
    
    
  <Observation>
  <id value="144-weight"/>
    <text>
      <status value="generated"/>
      <div xmlns="http://www.w3.org/1999/xhtml">2009-05-13: weight = 89.44842 kg</div>
    </text>
    <code>
      <coding>
        <system value="http://loinc.org"/>
        <code value="3141-9"/>
        <display value="weight"/>
      </coding>
      <text value="weight"/>
    </code>
    <valueQuantity>
      <value value="89.44842"/>
      <unit value="kg"/>
      <system value="http://unitsofmeasure.org" />
      <code value="kg"/>
    </valueQuantity>
    
    <effectiveDateTime value="2009-05-13"/>
    <status value="final"/>
    <subject>
      <reference value="Patient/981968"/>
    </subject>
    <encounter>
      <reference value="Encounter/144"/>
    </encounter>
    
  </Observation>
  
  </resource>
  <request>
    <method value="POST"/>
    <url value="Observation/144-weight"/>
  </request>
</entry>
<entry>
  <resource>
    
    
  <Observation>
  <id value="144-bmi"/>
    <text>
      <status value="generated"/>
      <div xmlns="http://www.w3.org/1999/xhtml">2009-05-13: bmi = 31.2 kg/m2</div>
    </text>
    <code>
      <coding>
        <system value="http://loinc.org"/>
        <code value="39156-5"/>
        <display value="bmi"/>
      </coding>
      <text value="bmi"/>
    </code>
    <valueQuantity>
      <value value="31.2"/>
      <unit value="kg/m2"/>
      <system value="http://unitsofmeasure.org" />
      <code value="kg/m2"/>
    </valueQuantity>
    
    <effectiveDateTime value="2009-05-13"/>
    <status value="final"/>
    <subject>
      <reference value="Patient/981968"/>
    </subject>
    <encounter>
      <reference value="Encounter/144"/>
    </encounter>
    
  </Observation>
  
  </resource>
  <request>
    <method value="POST"/>
    <url value="Observation/144-bmi"/>
  </request>
</entry>
<entry>
  <resource>
    
    
  <Observation>
  <id value="144-oxygensaturation"/>
    <text>
      <status value="generated"/>
      <div xmlns="http://www.w3.org/1999/xhtml">2009-05-13: oxygen_saturation = 95.0 %{HemoglobinSaturation}</div>
    </text>
    <code>
      <coding>
        <system value="http://loinc.org"/>
        <code value="2710-2"/>
        <display value="oxygen_saturation"/>
      </coding>
      <text value="oxygen_saturation"/>
    </code>
    <valueQuantity>
      <value value="95.0"/>
      <unit value="%{HemoglobinSaturation}"/>
      <system value="http://unitsofmeasure.org" />
      <code value="%{HemoglobinSaturation}"/>
    </valueQuantity>
    
    <effectiveDateTime value="2009-05-13"/>
    <status value="final"/>
    <subject>
      <reference value="Patient/981968"/>
    </subject>
    <encounter>
      <reference value="Encounter/144"/>
    </encounter>
    
  </Observation>
  
  </resource>
  <request>
    <method value="POST"/>
    <url value="Observation/144-oxygensaturation"/>
  </request>
</entry>
<entry>
  <resource>
    
    
  <Observation>
  <id value="145-height"/>
    <text>
      <status value="generated"/>
      <div xmlns="http://www.w3.org/1999/xhtml">2009-05-14: height = 168.656 cm</div>
    </text>
    <code>
      <coding>
        <system value="http://loinc.org"/>
        <code value="8302-2"/>
        <display value="height"/>
      </coding>
      <text value="height"/>
    </code>
    <valueQuantity>
      <value value="168.656"/>
      <unit value="cm"/>
      <system value="http://unitsofmeasure.org" />
      <code value="cm"/>
    </valueQuantity>
    
    <effectiveDateTime value="2009-05-14"/>
    <status value="final"/>
    <subject>
      <reference value="Patient/981968"/>
    </subject>
    <encounter>
      <reference value="Encounter/145"/>
    </encounter>
    
  </Observation>
  
  </resource>
  <request>
    <method value="POST"/>
    <url value="Observation/145-height"/>
  </request>
</entry>
<entry>
  <resource>
    
    
  <Observation>
  <id value="145-heartrate"/>
    <text>
      <status value="generated"/>
      <div xmlns="http://www.w3.org/1999/xhtml">2009-05-14: heart_rate = 74.0 {beats}/min</div>
    </text>
    <code>
      <coding>
        <system value="http://loinc.org"/>
        <code value="8867-4"/>
        <display value="heart_rate"/>
      </coding>
      <text value="heart_rate"/>
    </code>
    <valueQuantity>
      <value value="74.0"/>
      <unit value="{beats}/min"/>
      <system value="http://unitsofmeasure.org" />
      <code value="{beats}/min"/>
    </valueQuantity>
    
    <effectiveDateTime value="2009-05-14"/>
    <status value="final"/>
    <subject>
      <reference value="Patient/981968"/>
    </subject>
    <encounter>
      <reference value="Encounter/145"/>
    </encounter>
    
  </Observation>
  
  </resource>
  <request>
    <method value="POST"/>
    <url value="Observation/145-heartrate"/>
  </request>
</entry>
<entry>
  <resource>
    
    
  <Observation>
  <id value="145-respiratoryrate"/>
    <text>
      <status value="generated"/>
      <div xmlns="http://www.w3.org/1999/xhtml">2009-05-14: respiratory_rate = 16.0 {breaths}/min</div>
    </text>
    <code>
      <coding>
        <system value="http://loinc.org"/>
        <code value="9279-1"/>
        <display value="respiratory_rate"/>
      </coding>
      <text value="respiratory_rate"/>
    </code>
    <valueQuantity>
      <value value="16.0"/>
      <unit value="{breaths}/min"/>
      <system value="http://unitsofmeasure.org" />
      <code value="{breaths}/min"/>
    </valueQuantity>
    
    <effectiveDateTime value="2009-05-14"/>
    <status value="final"/>
    <subject>
      <reference value="Patient/981968"/>
    </subject>
    <encounter>
      <reference value="Encounter/145"/>
    </encounter>
    
  </Observation>
  
  </resource>
  <request>
    <method value="POST"/>
    <url value="Observation/145-respiratoryrate"/>
  </request>
</entry>
<entry>
  <resource>
    
    
  <Observation>
  <id value="145-temperature"/>
    <text>
      <status value="generated"/>
      <div xmlns="http://www.w3.org/1999/xhtml">2009-05-14: temperature = 36.0 Cel</div>
    </text>
    <code>
      <coding>
        <system value="http://loinc.org"/>
        <code value="8310-5"/>
        <display value="temperature"/>
      </coding>
      <text value="temperature"/>
    </code>
    <valueQuantity>
      <value value="36.0"/>
      <unit value="Cel"/>
      <system value="http://unitsofmeasure.org" />
      <code value="Cel"/>
    </valueQuantity>
    
    <effectiveDateTime value="2009-05-14"/>
    <status value="final"/>
    <subject>
      <reference value="Patient/981968"/>
    </subject>
    <encounter>
      <reference value="Encounter/145"/>
    </encounter>
    
  </Observation>
  
  </resource>
  <request>
    <method value="POST"/>
    <url value="Observation/145-temperature"/>
  </request>
</entry>
<entry>
  <resource>
    
    
  <Observation>
  <id value="145-weight"/>
    <text>
      <status value="generated"/>
      <div xmlns="http://www.w3.org/1999/xhtml">2009-05-14: weight = 88.133 kg</div>
    </text>
    <code>
      <coding>
        <system value="http://loinc.org"/>
        <code value="3141-9"/>
        <display value="weight"/>
      </coding>
      <text value="weight"/>
    </code>
    <valueQuantity>
      <value value="88.133"/>
      <unit value="kg"/>
      <system value="http://unitsofmeasure.org" />
      <code value="kg"/>
    </valueQuantity>
    
    <effectiveDateTime value="2009-05-14"/>
    <status value="final"/>
    <subject>
      <reference value="Patient/981968"/>
    </subject>
    <encounter>
      <reference value="Encounter/145"/>
    </encounter>
    
  </Observation>
  
  </resource>
  <request>
    <method value="POST"/>
    <url value="Observation/145-weight"/>
  </request>
</entry>
<entry>
  <resource>
    
    
  <Observation>
  <id value="145-bmi"/>
    <text>
      <status value="generated"/>
      <div xmlns="http://www.w3.org/1999/xhtml">2009-05-14: bmi = 30.9 kg/m2</div>
    </text>
    <code>
      <coding>
        <system value="http://loinc.org"/>
        <code value="39156-5"/>
        <display value="bmi"/>
      </coding>
      <text value="bmi"/>
    </code>
    <valueQuantity>
      <value value="30.9"/>
      <unit value="kg/m2"/>
      <system value="http://unitsofmeasure.org" />
      <code value="kg/m2"/>
    </valueQuantity>
    
    <effectiveDateTime value="2009-05-14"/>
    <status value="final"/>
    <subject>
      <reference value="Patient/981968"/>
    </subject>
    <encounter>
      <reference value="Encounter/145"/>
    </encounter>
    
  </Observation>
  
  </resource>
  <request>
    <method value="POST"/>
    <url value="Observation/145-bmi"/>
  </request>
</entry>
<entry>
  <resource>
    
    
  <Observation>
  <id value="145-oxygensaturation"/>
    <text>
      <status value="generated"/>
      <div xmlns="http://www.w3.org/1999/xhtml">2009-05-14: oxygen_saturation = 95.0 %{HemoglobinSaturation}</div>
    </text>
    <code>
      <coding>
        <system value="http://loinc.org"/>
        <code value="2710-2"/>
        <display value="oxygen_saturation"/>
      </coding>
      <text value="oxygen_saturation"/>
    </code>
    <valueQuantity>
      <value value="95.0"/>
      <unit value="%{HemoglobinSaturation}"/>
      <system value="http://unitsofmeasure.org" />
      <code value="%{HemoglobinSaturation}"/>
    </valueQuantity>
    
    <effectiveDateTime value="2009-05-14"/>
    <status value="final"/>
    <subject>
      <reference value="Patient/981968"/>
    </subject>
    <encounter>
      <reference value="Encounter/145"/>
    </encounter>
    
  </Observation>
  
  </resource>
  <request>
    <method value="POST"/>
    <url value="Observation/145-oxygensaturation"/>
  </request>
</entry>
<entry>
  <resource>
    
    
<MedicationOrder>
  <id value="93"/>
  <text>
    <status value="generated"/>
    <div xmlns="http://www.w3.org/1999/xhtml">
      200 ACTUAT Albuterol 0.09 MG/ACTUAT Metered Dose Inhaler (rxnorm: 745679)
    </div>
  </text>

  <status value="active" />
  <patient>
    <reference value="Patient/981968"/>
  </patient>

  <medicationCodeableConcept>
    <coding>
        <system value="http://www.nlm.nih.gov/research/umls/rxnorm"/>
        <code value="745679"/>
        <display value="200 ACTUAT Albuterol 0.09 MG/ACTUAT Metered Dose Inhaler"/>
    </coding>
    <text value="200 ACTUAT Albuterol 0.09 MG/ACTUAT Metered Dose Inhaler"/>
  </medicationCodeableConcept>

  <dosageInstruction>
    <timing>
      <repeat>
        <boundsPeriod>
          <start value="2004-10-27"/>
        </boundsPeriod>
        <frequency value="4"/>
        <period value="1"/>
        <periodUnits value="d"/>
      </repeat>
      
    </timing>
    <doseQuantity>
      <value value="2"/>
      <unit value="{puff}"/>
      <system value="http://unitsofmeasure.org"/>
      <code value="{puff}"/>
    </doseQuantity>
    
    <asNeededBoolean value="true"/>
    
    <text value="2 puffs qid prn SOB"/>
  </dosageInstruction>
  <dispenseRequest>
     <numberOfRepeatsAllowed value="1"/>
     
     <quantity>
        <value value="1"/>
        <unit value="{puff}"/>
        <system value="http://unitsofmeasure.org"/>
        <code value="{puff}"/>
     </quantity>
     
     <expectedSupplyDuration>
        <value value="25"/>
        <unit value="days"/>
        <system value="http://unitsofmeasure.org"/>
        <code value="d"/>
     </expectedSupplyDuration>
     
  </dispenseRequest>
  
</MedicationOrder>

  </resource>
  <request>
    <method value="POST"/>
    <url value="MedicationOrder/93"/>
  </request>
</entry>
<entry>
  <resource>
    
    
<MedicationOrder>
  <id value="94"/>
  <text>
    <status value="generated"/>
    <div xmlns="http://www.w3.org/1999/xhtml">
      Cyclobenzaprine hydrochloride 10 MG Oral Tablet (rxnorm: 828348)
    </div>
  </text>

  <status value="active" />
  <patient>
    <reference value="Patient/981968"/>
  </patient>

  <medicationCodeableConcept>
    <coding>
        <system value="http://www.nlm.nih.gov/research/umls/rxnorm"/>
        <code value="828348"/>
        <display value="Cyclobenzaprine hydrochloride 10 MG Oral Tablet"/>
    </coding>
    <text value="Cyclobenzaprine hydrochloride 10 MG Oral Tablet"/>
  </medicationCodeableConcept>

  <dosageInstruction>
    <timing>
      <repeat>
        <boundsPeriod>
          <start value="2005-05-17"/>
        </boundsPeriod>
        <frequency value="3"/>
        <period value="1"/>
        <periodUnits value="d"/>
      </repeat>
      
    </timing>
    <doseQuantity>
      <value value="1"/>
      <unit value="{tablet}"/>
      <system value="http://unitsofmeasure.org"/>
      <code value="{tablet}"/>
    </doseQuantity>
    
    <asNeededBoolean value="true"/>
    
    <text value="1 tid prn"/>
  </dosageInstruction>
  <dispenseRequest>
     <numberOfRepeatsAllowed value="1"/>
     
     <quantity>
        <value value="30"/>
        <unit value="{tablet}"/>
        <system value="http://unitsofmeasure.org"/>
        <code value="{tablet}"/>
     </quantity>
     
     <expectedSupplyDuration>
        <value value="10"/>
        <unit value="days"/>
        <system value="http://unitsofmeasure.org"/>
        <code value="d"/>
     </expectedSupplyDuration>
     
  </dispenseRequest>
  
</MedicationOrder>

  </resource>
  <request>
    <method value="POST"/>
    <url value="MedicationOrder/94"/>
  </request>
</entry>
<entry>
  <resource>
    
    
<MedicationDispense>
  <id value="557"/>
  <!--  insert contents here  -->
   <text>
    <status value="generated"/>
    <div xmlns="http://www.w3.org/1999/xhtml">
      Dispensed 30 tablets = 10 day supply of Cyclobenzaprine hydrochloride 10 MG Oral Tablet
    </div>
  </text>

  <status value="completed"/>

  <patient>
    <reference value="Patient/981968"/>
  </patient>

  <authorizingPrescription>
    <reference value="MedicationOrder/94"/>
  </authorizingPrescription>

  <quantity>
      <value value="30"/>
      <unit value="tablets"/>
      <system value="http://unitsofmeasure.org"/>
      <code value="{tablets}"/>
  </quantity>

  <daysSupply>
      <value value="10" />
      <unit value="days" />
      <system value="http://unitsofmeasure.org" />
      <code value="d" />
  </daysSupply>

  <medicationCodeableConcept>
    <coding>
        <system value="http://www.nlm.nih.gov/research/umls/rxnorm"/>
        <code value="828348"/>
        <display value="Cyclobenzaprine hydrochloride 10 MG Oral Tablet"/>
    </coding>
    <text value="Cyclobenzaprine hydrochloride 10 MG Oral Tablet"/>
  </medicationCodeableConcept>

  <whenHandedOver value="2005-05-17"/>

</MedicationDispense>

  </resource>
  <request>
    <method value="POST"/>
    <url value="MedicationDispense/557"/>
  </request>
</entry>
<entry>
  <resource>
    
    
<MedicationOrder>
  <id value="95"/>
  <text>
    <status value="generated"/>
    <div xmlns="http://www.w3.org/1999/xhtml">
      Acetaminophen 500 MG / Hydrocodone 5 MG Oral Tablet (rxnorm: 856903)
    </div>
  </text>

  <status value="active" />
  <patient>
    <reference value="Patient/981968"/>
  </patient>

  <medicationCodeableConcept>
    <coding>
        <system value="http://www.nlm.nih.gov/research/umls/rxnorm"/>
        <code value="856903"/>
        <display value="Acetaminophen 500 MG / Hydrocodone 5 MG Oral Tablet"/>
    </coding>
    <text value="Acetaminophen 500 MG / Hydrocodone 5 MG Oral Tablet"/>
  </medicationCodeableConcept>

  <dosageInstruction>
    <timing>
      <repeat>
        <boundsPeriod>
          <start value="2005-05-17"/>
        </boundsPeriod>
        <frequency value="4"/>
        <period value="1"/>
        <periodUnits value="d"/>
      </repeat>
      
    </timing>
    <doseQuantity>
      <value value="1"/>
      <unit value="{tablet}"/>
      <system value="http://unitsofmeasure.org"/>
      <code value="{tablet}"/>
    </doseQuantity>
    
    <asNeededBoolean value="true"/>
    
    <text value="1 q6h prn pain"/>
  </dosageInstruction>
  <dispenseRequest>
     <numberOfRepeatsAllowed value="1"/>
     
     <quantity>
        <value value="12"/>
        <unit value="{tablet}"/>
        <system value="http://unitsofmeasure.org"/>
        <code value="{tablet}"/>
     </quantity>
     
     <expectedSupplyDuration>
        <value value="3"/>
        <unit value="days"/>
        <system value="http://unitsofmeasure.org"/>
        <code value="d"/>
     </expectedSupplyDuration>
     
  </dispenseRequest>
  
</MedicationOrder>

  </resource>
  <request>
    <method value="POST"/>
    <url value="MedicationOrder/95"/>
  </request>
</entry>
<entry>
  <resource>
    
    
<MedicationDispense>
  <id value="561"/>
  <!--  insert contents here  -->
   <text>
    <status value="generated"/>
    <div xmlns="http://www.w3.org/1999/xhtml">
      Dispensed 12 tablets = 3 day supply of Acetaminophen 500 MG / Hydrocodone 5 MG Oral Tablet
    </div>
  </text>

  <status value="completed"/>

  <patient>
    <reference value="Patient/981968"/>
  </patient>

  <authorizingPrescription>
    <reference value="MedicationOrder/95"/>
  </authorizingPrescription>

  <quantity>
      <value value="12"/>
      <unit value="tablets"/>
      <system value="http://unitsofmeasure.org"/>
      <code value="{tablets}"/>
  </quantity>

  <daysSupply>
      <value value="3" />
      <unit value="days" />
      <system value="http://unitsofmeasure.org" />
      <code value="d" />
  </daysSupply>

  <medicationCodeableConcept>
    <coding>
        <system value="http://www.nlm.nih.gov/research/umls/rxnorm"/>
        <code value="856903"/>
        <display value="Acetaminophen 500 MG / Hydrocodone 5 MG Oral Tablet"/>
    </coding>
    <text value="Acetaminophen 500 MG / Hydrocodone 5 MG Oral Tablet"/>
  </medicationCodeableConcept>

  <whenHandedOver value="2005-05-17"/>

</MedicationDispense>

  </resource>
  <request>
    <method value="POST"/>
    <url value="MedicationDispense/561"/>
  </request>
</entry>
<entry>
  <resource>
    
    
<MedicationOrder>
  <id value="96"/>
  <text>
    <status value="generated"/>
    <div xmlns="http://www.w3.org/1999/xhtml">
      Etodolac 400 MG Extended Release Tablet (rxnorm: 285004)
    </div>
  </text>

  <status value="active" />
  <patient>
    <reference value="Patient/981968"/>
  </patient>

  <medicationCodeableConcept>
    <coding>
        <system value="http://www.nlm.nih.gov/research/umls/rxnorm"/>
        <code value="285004"/>
        <display value="Etodolac 400 MG Extended Release Tablet"/>
    </coding>
    <text value="Etodolac 400 MG Extended Release Tablet"/>
  </medicationCodeableConcept>

  <dosageInstruction>
    <timing>
      <repeat>
        <boundsPeriod>
          <start value="2005-10-17"/>
        </boundsPeriod>
        <frequency value="1"/>
        <period value="1"/>
        <periodUnits value="d"/>
      </repeat>
      
    </timing>
    <doseQuantity>
      <value value="1"/>
      <unit value="{tablet}"/>
      <system value="http://unitsofmeasure.org"/>
      <code value="{tablet}"/>
    </doseQuantity>
    
    <text value="1 daily"/>
  </dosageInstruction>
  <dispenseRequest>
     <numberOfRepeatsAllowed value="1"/>
     
     <quantity>
        <value value="30"/>
        <unit value="{tablet}"/>
        <system value="http://unitsofmeasure.org"/>
        <code value="{tablet}"/>
     </quantity>
     
     <expectedSupplyDuration>
        <value value="30"/>
        <unit value="days"/>
        <system value="http://unitsofmeasure.org"/>
        <code value="d"/>
     </expectedSupplyDuration>
     
  </dispenseRequest>
  
</MedicationOrder>

  </resource>
  <request>
    <method value="POST"/>
    <url value="MedicationOrder/96"/>
  </request>
</entry>
<entry>
  <resource>
    
    
<MedicationDispense>
  <id value="563"/>
  <!--  insert contents here  -->
   <text>
    <status value="generated"/>
    <div xmlns="http://www.w3.org/1999/xhtml">
      Dispensed 30 tablets = 30 day supply of Etodolac 400 MG Extended Release Tablet
    </div>
  </text>

  <status value="completed"/>

  <patient>
    <reference value="Patient/981968"/>
  </patient>

  <authorizingPrescription>
    <reference value="MedicationOrder/96"/>
  </authorizingPrescription>

  <quantity>
      <value value="30"/>
      <unit value="tablets"/>
      <system value="http://unitsofmeasure.org"/>
      <code value="{tablets}"/>
  </quantity>

  <daysSupply>
      <value value="30" />
      <unit value="days" />
      <system value="http://unitsofmeasure.org" />
      <code value="d" />
  </daysSupply>

  <medicationCodeableConcept>
    <coding>
        <system value="http://www.nlm.nih.gov/research/umls/rxnorm"/>
        <code value="285004"/>
        <display value="Etodolac 400 MG Extended Release Tablet"/>
    </coding>
    <text value="Etodolac 400 MG Extended Release Tablet"/>
  </medicationCodeableConcept>

  <whenHandedOver value="2005-10-17"/>

</MedicationDispense>

  </resource>
  <request>
    <method value="POST"/>
    <url value="MedicationDispense/563"/>
  </request>
</entry>
<entry>
  <resource>
    
    
<MedicationOrder>
  <id value="97"/>
  <text>
    <status value="generated"/>
    <div xmlns="http://www.w3.org/1999/xhtml">
      200 ACTUAT Albuterol 0.09 MG/ACTUAT Metered Dose Inhaler [ProAir HFA] (rxnorm: 745752)
    </div>
  </text>

  <status value="active" />
  <patient>
    <reference value="Patient/981968"/>
  </patient>

  <medicationCodeableConcept>
    <coding>
        <system value="http://www.nlm.nih.gov/research/umls/rxnorm"/>
        <code value="745752"/>
        <display value="200 ACTUAT Albuterol 0.09 MG/ACTUAT Metered Dose Inhaler [ProAir HFA]"/>
    </coding>
    <text value="200 ACTUAT Albuterol 0.09 MG/ACTUAT Metered Dose Inhaler [ProAir HFA]"/>
  </medicationCodeableConcept>

  <dosageInstruction>
    <timing>
      <repeat>
        <boundsPeriod>
          <start value="2006-09-01"/>
        </boundsPeriod>
        <frequency value="4"/>
        <period value="1"/>
        <periodUnits value="d"/>
      </repeat>
      
    </timing>
    <doseQuantity>
      <value value="2"/>
      <unit value="{puff}"/>
      <system value="http://unitsofmeasure.org"/>
      <code value="{puff}"/>
    </doseQuantity>
    
    <asNeededBoolean value="true"/>
    
    <text value="2 puffs qid prn SOB"/>
  </dosageInstruction>
  <dispenseRequest>
     <numberOfRepeatsAllowed value="1"/>
     
     <quantity>
        <value value="1"/>
        <unit value="{puff}"/>
        <system value="http://unitsofmeasure.org"/>
        <code value="{puff}"/>
     </quantity>
     
     <expectedSupplyDuration>
        <value value="25"/>
        <unit value="days"/>
        <system value="http://unitsofmeasure.org"/>
        <code value="d"/>
     </expectedSupplyDuration>
     
  </dispenseRequest>
  
</MedicationOrder>

  </resource>
  <request>
    <method value="POST"/>
    <url value="MedicationOrder/97"/>
  </request>
</entry>
<entry>
  <resource>
    
    
<MedicationOrder>
  <id value="98"/>
  <text>
    <status value="generated"/>
    <div xmlns="http://www.w3.org/1999/xhtml">
      carbinoxamine 0.4 MG/ML / Hydrocodone 1 MG/ML / Pseudoephedrine 6 MG/ML Oral Solution [Histex HC] (rxnorm: 858869)
    </div>
  </text>

  <status value="active" />
  <patient>
    <reference value="Patient/981968"/>
  </patient>

  <medicationCodeableConcept>
    <coding>
        <system value="http://www.nlm.nih.gov/research/umls/rxnorm"/>
        <code value="858869"/>
        <display value="carbinoxamine 0.4 MG/ML / Hydrocodone 1 MG/ML / Pseudoephedrine 6 MG/ML Oral Solution [Histex HC]"/>
    </coding>
    <text value="carbinoxamine 0.4 MG/ML / Hydrocodone 1 MG/ML / Pseudoephedrine 6 MG/ML Oral Solution [Histex HC]"/>
  </medicationCodeableConcept>

  <dosageInstruction>
    <timing>
    </timing>
    <text value=""/>
  </dosageInstruction>
  <dispenseRequest>
     <numberOfRepeatsAllowed value="1"/>
     
     <quantity>
        <value value="1"/>
        <unit value=""/>
        <system value="http://unitsofmeasure.org"/>
        <code value=""/>
     </quantity>
     
     <expectedSupplyDuration>
        <value value="16"/>
        <unit value="days"/>
        <system value="http://unitsofmeasure.org"/>
        <code value="d"/>
     </expectedSupplyDuration>
     
  </dispenseRequest>
  
</MedicationOrder>

  </resource>
  <request>
    <method value="POST"/>
    <url value="MedicationOrder/98"/>
  </request>
</entry>
<entry>
  <resource>
    
    
<MedicationOrder>
  <id value="99"/>
  <text>
    <status value="generated"/>
    <div xmlns="http://www.w3.org/1999/xhtml">
      mometasone furoate 1 MG/ML Topical Cream (rxnorm: 311753)
    </div>
  </text>

  <status value="active" />
  <patient>
    <reference value="Patient/981968"/>
  </patient>

  <medicationCodeableConcept>
    <coding>
        <system value="http://www.nlm.nih.gov/research/umls/rxnorm"/>
        <code value="311753"/>
        <display value="mometasone furoate 1 MG/ML Topical Cream"/>
    </coding>
    <text value="mometasone furoate 1 MG/ML Topical Cream"/>
  </medicationCodeableConcept>

  <dosageInstruction>
    <timing>
      <repeat>
        <boundsPeriod>
          <start value="2008-06-22"/>
        </boundsPeriod>
        <frequency value="1"/>
        <period value="1"/>
        <periodUnits value="d"/>
      </repeat>
      
    </timing>
    <text value="apply daily"/>
  </dosageInstruction>
  <dispenseRequest>
     <numberOfRepeatsAllowed value="1"/>
     
     <quantity>
        <value value="1"/>
        <unit value=""/>
        <system value="http://unitsofmeasure.org"/>
        <code value=""/>
     </quantity>
     
     <expectedSupplyDuration>
        <value value="7"/>
        <unit value="days"/>
        <system value="http://unitsofmeasure.org"/>
        <code value="d"/>
     </expectedSupplyDuration>
     
  </dispenseRequest>
  
</MedicationOrder>

  </resource>
  <request>
    <method value="POST"/>
    <url value="MedicationOrder/99"/>
  </request>
</entry>
<entry>
  <resource>
    
    
<MedicationOrder>
  <id value="100"/>
  <text>
    <status value="generated"/>
    <div xmlns="http://www.w3.org/1999/xhtml">
      Cephalexin 500 MG Oral Capsule (rxnorm: 309114)
    </div>
  </text>

  <status value="active" />
  <patient>
    <reference value="Patient/981968"/>
  </patient>

  <medicationCodeableConcept>
    <coding>
        <system value="http://www.nlm.nih.gov/research/umls/rxnorm"/>
        <code value="309114"/>
        <display value="Cephalexin 500 MG Oral Capsule"/>
    </coding>
    <text value="Cephalexin 500 MG Oral Capsule"/>
  </medicationCodeableConcept>

  <dosageInstruction>
    <timing>
      <repeat>
        <boundsPeriod>
          <start value="2008-07-10"/>
        </boundsPeriod>
        <frequency value="4"/>
        <period value="1"/>
        <periodUnits value="d"/>
      </repeat>
      
    </timing>
    <doseQuantity>
      <value value="1"/>
      <unit value="{tablet}"/>
      <system value="http://unitsofmeasure.org"/>
      <code value="{tablet}"/>
    </doseQuantity>
    
    <text value="1 qid"/>
  </dosageInstruction>
  <dispenseRequest>
     <numberOfRepeatsAllowed value="1"/>
     
     <quantity>
        <value value="40"/>
        <unit value="{tablet}"/>
        <system value="http://unitsofmeasure.org"/>
        <code value="{tablet}"/>
     </quantity>
     
     <expectedSupplyDuration>
        <value value="10"/>
        <unit value="days"/>
        <system value="http://unitsofmeasure.org"/>
        <code value="d"/>
     </expectedSupplyDuration>
     
  </dispenseRequest>
  
</MedicationOrder>

  </resource>
  <request>
    <method value="POST"/>
    <url value="MedicationOrder/100"/>
  </request>
</entry>
<entry>
  <resource>
    
    
<MedicationDispense>
  <id value="562"/>
  <!--  insert contents here  -->
   <text>
    <status value="generated"/>
    <div xmlns="http://www.w3.org/1999/xhtml">
      Dispensed 40 tablets = 10 day supply of Cephalexin 500 MG Oral Capsule
    </div>
  </text>

  <status value="completed"/>

  <patient>
    <reference value="Patient/981968"/>
  </patient>

  <authorizingPrescription>
    <reference value="MedicationOrder/100"/>
  </authorizingPrescription>

  <quantity>
      <value value="40"/>
      <unit value="tablets"/>
      <system value="http://unitsofmeasure.org"/>
      <code value="{tablets}"/>
  </quantity>

  <daysSupply>
      <value value="10" />
      <unit value="days" />
      <system value="http://unitsofmeasure.org" />
      <code value="d" />
  </daysSupply>

  <medicationCodeableConcept>
    <coding>
        <system value="http://www.nlm.nih.gov/research/umls/rxnorm"/>
        <code value="309114"/>
        <display value="Cephalexin 500 MG Oral Capsule"/>
    </coding>
    <text value="Cephalexin 500 MG Oral Capsule"/>
  </medicationCodeableConcept>

  <whenHandedOver value="2008-07-10"/>

</MedicationDispense>

  </resource>
  <request>
    <method value="POST"/>
    <url value="MedicationDispense/562"/>
  </request>
</entry>
  <entry>
  <resource>
    
    
  <Condition>
  <id value="259"/>
    <text>
     <status value="generated"/>
     <div xmlns="http://www.w3.org/1999/xhtml">Low back pain</div>   
   </text>
    <patient>
      <reference value="Patient/981968"/>
    </patient>
    <code> 
      <coding>
        <system value="http://snomed.info/sct"/>
        <code value="279039007"/>
        <display value="Low back pain"/>
      </coding>
      <text value="Low back pain"/>
    </code>
   <clinicalStatus value="confirmed"/>
   <onsetDateTime value="2005-05-17"/>
   
  </Condition>
  
  </resource>
  <request>
    <method value="POST"/>
    <url value="Condition/259"/>
  </request>
</entry>
  <entry>
  <resource>
    
    
  <Condition>
  <id value="260"/>
    <text>
     <status value="generated"/>
     <div xmlns="http://www.w3.org/1999/xhtml">Lumbar sprain</div>   
   </text>
    <patient>
      <reference value="Patient/981968"/>
    </patient>
    <code> 
      <coding>
        <system value="http://snomed.info/sct"/>
        <code value="209565008"/>
        <display value="Lumbar sprain"/>
      </coding>
      <text value="Lumbar sprain"/>
    </code>
   <clinicalStatus value="confirmed"/>
   <onsetDateTime value="2005-06-25"/>
   
  </Condition>
  
  </resource>
  <request>
    <method value="POST"/>
    <url value="Condition/260"/>
  </request>
</entry>
  <entry>
  <resource>
    
    
  <Condition>
  <id value="261"/>
    <text>
     <status value="generated"/>
     <div xmlns="http://www.w3.org/1999/xhtml">Asthma</div>   
   </text>
    <patient>
      <reference value="Patient/981968"/>
    </patient>
    <code> 
      <coding>
        <system value="http://snomed.info/sct"/>
        <code value="195967001"/>
        <display value="Asthma"/>
      </coding>
      <text value="Asthma"/>
    </code>
   <clinicalStatus value="confirmed"/>
   <onsetDateTime value="2005-10-11"/>
   
  </Condition>
  
  </resource>
  <request>
    <method value="POST"/>
    <url value="Condition/261"/>
  </request>
</entry>
  <entry>
  <resource>
    
    
  <Condition>
  <id value="262"/>
    <text>
     <status value="generated"/>
     <div xmlns="http://www.w3.org/1999/xhtml">Pure hypercholesterolemia</div>   
   </text>
    <patient>
      <reference value="Patient/981968"/>
    </patient>
    <code> 
      <coding>
        <system value="http://snomed.info/sct"/>
        <code value="267432004"/>
        <display value="Pure hypercholesterolemia"/>
      </coding>
      <text value="Pure hypercholesterolemia"/>
    </code>
   <clinicalStatus value="confirmed"/>
   <onsetDateTime value="2005-10-11"/>
   
  </Condition>
  
  </resource>
  <request>
    <method value="POST"/>
    <url value="Condition/262"/>
  </request>
</entry>
  <entry>
  <resource>
    
    
  <Condition>
  <id value="263"/>
    <text>
     <status value="generated"/>
     <div xmlns="http://www.w3.org/1999/xhtml">Calcaneal spur</div>   
   </text>
    <patient>
      <reference value="Patient/981968"/>
    </patient>
    <code> 
      <coding>
        <system value="http://snomed.info/sct"/>
        <code value="55260003"/>
        <display value="Calcaneal spur"/>
      </coding>
      <text value="Calcaneal spur"/>
    </code>
   <clinicalStatus value="confirmed"/>
   <onsetDateTime value="2005-10-17"/>
   
  </Condition>
  
  </resource>
  <request>
    <method value="POST"/>
    <url value="Condition/263"/>
  </request>
</entry>
  <entry>
  <resource>
    
    
  <Condition>
  <id value="264"/>
    <text>
     <status value="generated"/>
     <div xmlns="http://www.w3.org/1999/xhtml">Lateral epicondylitis</div>   
   </text>
    <patient>
      <reference value="Patient/981968"/>
    </patient>
    <code> 
      <coding>
        <system value="http://snomed.info/sct"/>
        <code value="202855006"/>
        <display value="Lateral epicondylitis"/>
      </coding>
      <text value="Lateral epicondylitis"/>
    </code>
   <clinicalStatus value="confirmed"/>
   <onsetDateTime value="2005-10-17"/>
   
  </Condition>
  
  </resource>
  <request>
    <method value="POST"/>
    <url value="Condition/264"/>
  </request>
</entry>
  <entry>
  <resource>
    
    
  <Condition>
  <id value="265"/>
    <text>
     <status value="generated"/>
     <div xmlns="http://www.w3.org/1999/xhtml">Pain in limb</div>   
   </text>
    <patient>
      <reference value="Patient/981968"/>
    </patient>
    <code> 
      <coding>
        <system value="http://snomed.info/sct"/>
        <code value="10601006"/>
        <display value="Pain in limb"/>
      </coding>
      <text value="Pain in limb"/>
    </code>
   <clinicalStatus value="confirmed"/>
   <onsetDateTime value="2005-10-17"/>
   
  </Condition>
  
  </resource>
  <request>
    <method value="POST"/>
    <url value="Condition/265"/>
  </request>
</entry>
  <entry>
  <resource>
    
    
  <Condition>
  <id value="266"/>
    <text>
     <status value="generated"/>
     <div xmlns="http://www.w3.org/1999/xhtml">Gout</div>   
   </text>
    <patient>
      <reference value="Patient/981968"/>
    </patient>
    <code> 
      <coding>
        <system value="http://snomed.info/sct"/>
        <code value="90560007"/>
        <display value="Gout"/>
      </coding>
      <text value="Gout"/>
    </code>
   <clinicalStatus value="confirmed"/>
   <onsetDateTime value="2008-06-21"/>
   
  </Condition>
  
  </resource>
  <request>
    <method value="POST"/>
    <url value="Condition/266"/>
  </request>
</entry>
  <entry>
  <resource>
    
    
  <Condition>
  <id value="267"/>
    <text>
     <status value="generated"/>
     <div xmlns="http://www.w3.org/1999/xhtml">Hair and hair follicle diseases</div>   
   </text>
    <patient>
      <reference value="Patient/981968"/>
    </patient>
    <code> 
      <coding>
        <system value="http://snomed.info/sct"/>
        <code value="13600006"/>
        <display value="Hair and hair follicle diseases"/>
      </coding>
      <text value="Hair and hair follicle diseases"/>
    </code>
   <clinicalStatus value="confirmed"/>
   <onsetDateTime value="2008-06-21"/>
   
  </Condition>
  
  </resource>
  <request>
    <method value="POST"/>
    <url value="Condition/267"/>
  </request>
</entry>
  <entry>
  <resource>
    
    
  <Condition>
  <id value="268"/>
    <text>
     <status value="generated"/>
     <div xmlns="http://www.w3.org/1999/xhtml">Malaise and fatigue</div>   
   </text>
    <patient>
      <reference value="Patient/981968"/>
    </patient>
    <code> 
      <coding>
        <system value="http://snomed.info/sct"/>
        <code value="84229001"/>
        <display value="Malaise and fatigue"/>
      </coding>
      <text value="Malaise and fatigue"/>
    </code>
   <clinicalStatus value="confirmed"/>
   <onsetDateTime value="2008-06-21"/>
   
  </Condition>
  
  </resource>
  <request>
    <method value="POST"/>
    <url value="Condition/268"/>
  </request>
</entry>
  <entry>
  <resource>
    
    
  <Condition>
  <id value="269"/>
    <text>
     <status value="generated"/>
     <div xmlns="http://www.w3.org/1999/xhtml">Dizziness and giddiness</div>   
   </text>
    <patient>
      <reference value="Patient/981968"/>
    </patient>
    <code> 
      <coding>
        <system value="http://snomed.info/sct"/>
        <code value="404640003"/>
        <display value="Dizziness and giddiness"/>
      </coding>
      <text value="Dizziness and giddiness"/>
    </code>
   <clinicalStatus value="confirmed"/>
   <onsetDateTime value="2008-07-10"/>
   
  </Condition>
  
  </resource>
  <request>
    <method value="POST"/>
    <url value="Condition/269"/>
  </request>
</entry>
  <entry>
  <resource>
    
    
  <Condition>
  <id value="270"/>
    <text>
     <status value="generated"/>
     <div xmlns="http://www.w3.org/1999/xhtml">Duodenal ulcer without hemorrhage, without perforation AND without obstruction</div>   
   </text>
    <patient>
      <reference value="Patient/981968"/>
    </patient>
    <code> 
      <coding>
        <system value="http://snomed.info/sct"/>
        <code value="51868009"/>
        <display value="Duodenal ulcer without hemorrhage, without perforation AND without obstruction"/>
      </coding>
      <text value="Duodenal ulcer without hemorrhage, without perforation AND without obstruction"/>
    </code>
   <clinicalStatus value="confirmed"/>
   <onsetDateTime value="2008-07-21"/>
   
  </Condition>
  
  </resource>
  <request>
    <method value="POST"/>
    <url value="Condition/270"/>
  </request>
</entry>
  <entry>
  <resource>
    
    
  <Condition>
  <id value="271"/>
    <text>
     <status value="generated"/>
     <div xmlns="http://www.w3.org/1999/xhtml">Gastroesophageal reflux disease</div>   
   </text>
    <patient>
      <reference value="Patient/981968"/>
    </patient>
    <code> 
      <coding>
        <system value="http://snomed.info/sct"/>
        <code value="235595009"/>
        <display value="Gastroesophageal reflux disease"/>
      </coding>
      <text value="Gastroesophageal reflux disease"/>
    </code>
   <clinicalStatus value="confirmed"/>
   <onsetDateTime value="2008-07-21"/>
   
  </Condition>
  
  </resource>
  <request>
    <method value="POST"/>
    <url value="Condition/271"/>
  </request>
</entry>
  <entry>
  <resource>
    
    
  <Procedure>
  <id value="11"/>
   <text>
     <status value="generated"/>
     <div xmlns="http://www.w3.org/1999/xhtml">Peak expiratory flow rate monitoring using diary</div>
   </text>
   <subject>
      <reference value="Patient/981968"/>
   </subject>
   <code>
      <coding>
        <system value="http://snomed.info/sct"/>
        <code value="401011001"/>
        <display value="Peak expiratory flow rate monitoring using diary"/>
      </coding>
      <text value="Peak expiratory flow rate monitoring using diary"/>
   </code>
   <performedDateTime value="2005-10-11"/>
  </Procedure>
  
  </resource>
  <request>
    <method value="POST"/>
    <url value="Procedure/11"/>
  </request>
</entry>
<entry>
  <resource>
    
    
  <Observation>
  <id value="17-smokingstatus"/>
    <text>
      <status value="generated"/>
      <div xmlns="http://www.w3.org/1999/xhtml">Tobacco smoking status: Never smoker</div>
    </text>
    <code>
      <coding>
        <system value="http://loinc.org"/>
        <code value="72166-2"/>
        <display value="Tobacco smoking status"/>
      </coding>
      <text value="Tobacco smoking status"/>
    </code>
    <valueCodeableConcept>
      <coding>
        <system value="http://snomed.info/sct"/>
        <code value="266919005"/>
        <display value="Never smoker"/>
      </coding>
      <text value="Never smoker"/>
    </valueCodeableConcept>
    <status value="final"/>
    <subject>
      <reference value="Patient/981968"/>
    </subject>
  </Observation>
  
  </resource>
  <request>
    <method value="POST"/>
    <url value="Observation/17-smokingstatus"/>
  </request>
</entry>
  <entry>
  <resource>
    
    
    <List>
  <id value="18"/>
        <text>
            <status value="generated"/>
            <div xmlns="http://www.w3.org/1999/xhtml">No known allergies</div>
        </text>
        <code>
            <coding>
               <system value="http://loinc.org/"/>
               <code value="52473-6"/>
               <display value="Allergy"/>
            </coding>
            <text value="Allergy"/>
        </code>
        <subject>
          <reference value="Patient/981968"/>
        </subject>
        <date value="2000"/>
        <mode value="snapshot"/>
        <emptyReason>
            <coding>
                <system value="http://hl7.org/fhir/list-empty-reason"/>
                <code value="nilknown"/>
                <display value="Nil Known"/>
            </coding>
            <text value="Nil Known"/>
        </emptyReason>
    </List>
  
  </resource>
  <request>
    <method value="POST"/>
    <url value="List/18"/>
  </request>
</entry>

</Bundle>
