<?xml version="1.0" encoding="UTF-8"?>
<Bundle xmlns="http://hl7.org/fhir">
    <type value="transaction"/>

  <entry>
  <resource>
    
    
  <Patient>
    <id value="ID9995679"/>
    <text>
      <status value="generated"/>
      <div xmlns="http://www.w3.org/1999/xhtml">
        <p>Aaron Alexis</p>
      </div>
    </text>
    <identifier>
      <use value="usual"/>
      <type>
        <coding>
          <system value="http://hl7.org/fhir/v2/0203"/>
          <code value="MR"/>
          <display value="Medical record number"/>
        </coding>
      </type>
      <system value="http://hospital.smarthealthit.org"/>
      <value value="9995679"/>
    </identifier>
    <name>
      <use value="official"/>
      <family value="Alexis"/>
      <given value="Aaron"/>
    </name>
    <gender value="male" />
    <birthDate value="1989-10-26" />
    <address>
      <use value="home"/>
      <postalCode value="02155"/>
      <country value="USA"/>
    </address>
    <active value="true"/>
  </Patient>
  
  </resource>
  <transaction>
    <method value="PUT"/>
    <url value="Patient/ID9995679"/>
  </transaction>
</entry>
  <entry>
  <resource>
    
    
    <Encounter>
  <id value="ID1"/>
      <text>
        <status value="generated"/>
        <div xmlns="http://www.w3.org/1999/xhtml">2006-12-27T15:53:00: ambulatory encounter</div>
      </text>
      <status value="finished"/>
      <class value="ambulatory"/>
      <patient>
        <reference value="Patient/ID9995679"/>
      </patient>
      <period>
       <start value="2006-12-27T15:53:00"/>
       <end value="2006-12-28T04:59:59"/>
      </period>
    </Encounter>
  
  </resource>
  <transaction>
    <method value="PUT"/>
    <url value="Encounter/ID1"/>
  </transaction>
</entry>
  <entry>
  <resource>
    
    
    <Encounter>
  <id value="ID2"/>
      <text>
        <status value="generated"/>
        <div xmlns="http://www.w3.org/1999/xhtml">2007-04-18T13:32:00: ambulatory encounter</div>
      </text>
      <status value="finished"/>
      <class value="ambulatory"/>
      <patient>
        <reference value="Patient/ID9995679"/>
      </patient>
      <period>
       <start value="2007-04-18T13:32:00"/>
       <end value="2007-04-19T04:59:59"/>
      </period>
    </Encounter>
  
  </resource>
  <transaction>
    <method value="PUT"/>
    <url value="Encounter/ID2"/>
  </transaction>
</entry>
  <entry>
  <resource>
    
    
    <Encounter>
  <id value="ID3"/>
      <text>
        <status value="generated"/>
        <div xmlns="http://www.w3.org/1999/xhtml">2007-07-18T12:49:00: ambulatory encounter</div>
      </text>
      <status value="finished"/>
      <class value="ambulatory"/>
      <patient>
        <reference value="Patient/ID9995679"/>
      </patient>
      <period>
       <start value="2007-07-18T12:49:00"/>
       <end value="2007-07-19T04:59:59"/>
      </period>
    </Encounter>
  
  </resource>
  <transaction>
    <method value="PUT"/>
    <url value="Encounter/ID3"/>
  </transaction>
</entry>
  <entry>
  <resource>
    
    
    <Encounter>
  <id value="ID4"/>
      <text>
        <status value="generated"/>
        <div xmlns="http://www.w3.org/1999/xhtml">2008-01-16T13:03:00: ambulatory encounter</div>
      </text>
      <status value="finished"/>
      <class value="ambulatory"/>
      <patient>
        <reference value="Patient/ID9995679"/>
      </patient>
      <period>
       <start value="2008-01-16T13:03:00"/>
       <end value="2008-01-17T04:59:59"/>
      </period>
    </Encounter>
  
  </resource>
  <transaction>
    <method value="PUT"/>
    <url value="Encounter/ID4"/>
  </transaction>
</entry>
  <entry>
  <resource>
    
    
    <Encounter>
  <id value="ID5"/>
      <text>
        <status value="generated"/>
        <div xmlns="http://www.w3.org/1999/xhtml">2008-06-25T15:45:00: ambulatory encounter</div>
      </text>
      <status value="finished"/>
      <class value="ambulatory"/>
      <patient>
        <reference value="Patient/ID9995679"/>
      </patient>
      <period>
       <start value="2008-06-25T15:45:00"/>
       <end value="2008-06-26T04:59:59"/>
      </period>
    </Encounter>
  
  </resource>
  <transaction>
    <method value="PUT"/>
    <url value="Encounter/ID5"/>
  </transaction>
</entry>
  <entry>
  <resource>
    
    
    <Encounter>
  <id value="ID7"/>
      <text>
        <status value="generated"/>
        <div xmlns="http://www.w3.org/1999/xhtml">2009-06-10T12:39:00: ambulatory encounter</div>
      </text>
      <status value="finished"/>
      <class value="ambulatory"/>
      <patient>
        <reference value="Patient/ID9995679"/>
      </patient>
      <period>
       <start value="2009-06-10T12:39:00"/>
       <end value="2009-06-11T04:59:59"/>
      </period>
    </Encounter>
  
  </resource>
  <transaction>
    <method value="PUT"/>
    <url value="Encounter/ID7"/>
  </transaction>
</entry>
  <entry>
  <resource>
    
    
    <Encounter>
  <id value="ID9"/>
      <text>
        <status value="generated"/>
        <div xmlns="http://www.w3.org/1999/xhtml">2009-12-23T12:54:00: ambulatory encounter</div>
      </text>
      <status value="finished"/>
      <class value="ambulatory"/>
      <patient>
        <reference value="Patient/ID9995679"/>
      </patient>
      <period>
       <start value="2009-12-23T12:54:00"/>
       <end value="2009-12-24T04:59:59"/>
      </period>
    </Encounter>
  
  </resource>
  <transaction>
    <method value="PUT"/>
    <url value="Encounter/ID9"/>
  </transaction>
</entry>
  <entry>
  <resource>
    
    
    <Encounter>
  <id value="ID15"/>
      <text>
        <status value="generated"/>
        <div xmlns="http://www.w3.org/1999/xhtml">2010-12-22T17:23:00: ambulatory encounter</div>
      </text>
      <status value="finished"/>
      <class value="ambulatory"/>
      <patient>
        <reference value="Patient/ID9995679"/>
      </patient>
      <period>
       <start value="2010-12-22T17:23:00"/>
       <end value="2010-12-23T04:59:59"/>
      </period>
    </Encounter>
  
  </resource>
  <transaction>
    <method value="PUT"/>
    <url value="Encounter/ID15"/>
  </transaction>
</entry>
  <entry>
  <resource>
    
    
  <Observation>
    <id value="ID2-bp"/>
    <text>
      <status value="generated"/>
      <div xmlns="http://www.w3.org/1999/xhtml">2007-04-18: Blood pressure 121/62 mmHg</div>
    </text>
    <code>
      <coding>
        <system value="http://loinc.org"/>
        <code value="55284-4"/>
        <display value="Blood pressure systolic and diastolic"/>
      </coding>
    </code>
    <appliesDateTime value="2007-04-18"/>
    <status value="final"/>
    <reliability value="ok"/>
    <subject>
      <reference value="Patient/ID9995679"/>
    </subject>
    <related>
      <type value="has-component"/>
      <target>
        <reference value="Observation/ID2-systolic"/>
      </target>
    </related>
    <related>
      <type value="has-component"/>
      <target>
        <reference value="Observation/ID2-diastolic"/>
      </target>
    </related>
    <bodySiteCodeableConcept>
     <coding>
         <system value="http://snomed.info/sct"/>
         <code value="368209003"/>
         <display value="right arm"/>
     </coding>
    </bodySiteCodeableConcept>
    
    <encounter>
      <reference value="Encounter/ID2"/>
    </encounter>
    

  </Observation>
  
  </resource>
  <transaction>
    <method value="PUT"/>
    <url value="Observation/ID2-bp"/>
  </transaction>
</entry>
<entry>
  <resource>
    
    
  <Observation>
  <id value="ID2-systolic"/>
    <text>
      <status value="generated"/>
      <div xmlns="http://www.w3.org/1999/xhtml">2007-04-18: Systolic blood pressure = 121 mm[Hg]</div>
    </text>
    <code>
      <coding>
        <system value="http://loinc.org"/>
        <code value="8480-6"/>
        <display value="Systolic blood pressure"/>
      </coding>
    </code>
    <valueQuantity>
      <value value="121.0"/>
      <units value="mm[Hg]"/>
      <system value="http://unitsofmeasure.org" />
      <code value="mm[Hg]"/>
    </valueQuantity>
    
    <appliesDateTime value="2007-04-18"/>
    <status value="final"/>
    <reliability value="ok"/>
    <subject>
      <reference value="Patient/ID9995679"/>
    </subject>
  </Observation>
  
  </resource>
  <transaction>
    <method value="PUT"/>
    <url value="Observation/ID2-systolic"/>
  </transaction>
</entry>
<entry>
  <resource>
    
    
  <Observation>
  <id value="ID2-diastolic"/>
    <text>
      <status value="generated"/>
      <div xmlns="http://www.w3.org/1999/xhtml">2007-04-18: Diastolic blood pressure = 62 mm[Hg]</div>
    </text>
    <code>
      <coding>
        <system value="http://loinc.org"/>
        <code value="8462-4"/>
        <display value="Diastolic blood pressure"/>
      </coding>
    </code>
    <valueQuantity>
      <value value="62.0"/>
      <units value="mm[Hg]"/>
      <system value="http://unitsofmeasure.org" />
      <code value="mm[Hg]"/>
    </valueQuantity>
    
    <appliesDateTime value="2007-04-18"/>
    <status value="final"/>
    <reliability value="ok"/>
    <subject>
      <reference value="Patient/ID9995679"/>
    </subject>
  </Observation>
  
  </resource>
  <transaction>
    <method value="PUT"/>
    <url value="Observation/ID2-diastolic"/>
  </transaction>
</entry>
  <entry>
  <resource>
    
    
  <Observation>
    <id value="ID3-bp"/>
    <extension url="http://fhir-registry.smarthealthit.org/StructureDefinition/vital-signs#position">
      <valueCodeableConcept>
         <coding>
             <system value="http://snomed.info/sct"/>
             <code value="40199007"/>
             <display value="supine"/>
         </coding>
       </valueCodeableConcept>
    </extension>
    
    <text>
      <status value="generated"/>
      <div xmlns="http://www.w3.org/1999/xhtml">2007-07-18: Blood pressure 116/64 mmHg</div>
    </text>
    <code>
      <coding>
        <system value="http://loinc.org"/>
        <code value="55284-4"/>
        <display value="Blood pressure systolic and diastolic"/>
      </coding>
    </code>
    <appliesDateTime value="2007-07-18"/>
    <status value="final"/>
    <reliability value="ok"/>
    <subject>
      <reference value="Patient/ID9995679"/>
    </subject>
    <related>
      <type value="has-component"/>
      <target>
        <reference value="Observation/ID3-systolic"/>
      </target>
    </related>
    <related>
      <type value="has-component"/>
      <target>
        <reference value="Observation/ID3-diastolic"/>
      </target>
    </related>
    <bodySiteCodeableConcept>
     <coding>
         <system value="http://snomed.info/sct"/>
         <code value="368209003"/>
         <display value="right arm"/>
     </coding>
    </bodySiteCodeableConcept>
    
    <method>
     <coding>
         <system value="http://smarthealthit.org/terms/codes/BloodPressureMethod#"/>
         <code value="machine"/>
         <display value="machine"/>
     </coding>
    </method>
    
    <encounter>
      <reference value="Encounter/ID3"/>
    </encounter>
    

  </Observation>
  
  </resource>
  <transaction>
    <method value="PUT"/>
    <url value="Observation/ID3-bp"/>
  </transaction>
</entry>
<entry>
  <resource>
    
    
  <Observation>
  <id value="ID3-systolic"/>
    <text>
      <status value="generated"/>
      <div xmlns="http://www.w3.org/1999/xhtml">2007-07-18: Systolic blood pressure = 116 mm[Hg]</div>
    </text>
    <code>
      <coding>
        <system value="http://loinc.org"/>
        <code value="8480-6"/>
        <display value="Systolic blood pressure"/>
      </coding>
    </code>
    <valueQuantity>
      <value value="116.0"/>
      <units value="mm[Hg]"/>
      <system value="http://unitsofmeasure.org" />
      <code value="mm[Hg]"/>
    </valueQuantity>
    
    <appliesDateTime value="2007-07-18"/>
    <status value="final"/>
    <reliability value="ok"/>
    <subject>
      <reference value="Patient/ID9995679"/>
    </subject>
  </Observation>
  
  </resource>
  <transaction>
    <method value="PUT"/>
    <url value="Observation/ID3-systolic"/>
  </transaction>
</entry>
<entry>
  <resource>
    
    
  <Observation>
  <id value="ID3-diastolic"/>
    <text>
      <status value="generated"/>
      <div xmlns="http://www.w3.org/1999/xhtml">2007-07-18: Diastolic blood pressure = 64 mm[Hg]</div>
    </text>
    <code>
      <coding>
        <system value="http://loinc.org"/>
        <code value="8462-4"/>
        <display value="Diastolic blood pressure"/>
      </coding>
    </code>
    <valueQuantity>
      <value value="64.0"/>
      <units value="mm[Hg]"/>
      <system value="http://unitsofmeasure.org" />
      <code value="mm[Hg]"/>
    </valueQuantity>
    
    <appliesDateTime value="2007-07-18"/>
    <status value="final"/>
    <reliability value="ok"/>
    <subject>
      <reference value="Patient/ID9995679"/>
    </subject>
  </Observation>
  
  </resource>
  <transaction>
    <method value="PUT"/>
    <url value="Observation/ID3-diastolic"/>
  </transaction>
</entry>
  <entry>
  <resource>
    
    
  <Observation>
    <id value="ID4-bp"/>
    <extension url="http://fhir-registry.smarthealthit.org/StructureDefinition/vital-signs#position">
      <valueCodeableConcept>
         <coding>
             <system value="http://snomed.info/sct"/>
             <code value="40199007"/>
             <display value="supine"/>
         </coding>
       </valueCodeableConcept>
    </extension>
    
    <text>
      <status value="generated"/>
      <div xmlns="http://www.w3.org/1999/xhtml">2008-01-16: Blood pressure 120/58 mmHg</div>
    </text>
    <code>
      <coding>
        <system value="http://loinc.org"/>
        <code value="55284-4"/>
        <display value="Blood pressure systolic and diastolic"/>
      </coding>
    </code>
    <appliesDateTime value="2008-01-16"/>
    <status value="final"/>
    <reliability value="ok"/>
    <subject>
      <reference value="Patient/ID9995679"/>
    </subject>
    <related>
      <type value="has-component"/>
      <target>
        <reference value="Observation/ID4-systolic"/>
      </target>
    </related>
    <related>
      <type value="has-component"/>
      <target>
        <reference value="Observation/ID4-diastolic"/>
      </target>
    </related>
    <bodySiteCodeableConcept>
     <coding>
         <system value="http://snomed.info/sct"/>
         <code value="368209003"/>
         <display value="right arm"/>
     </coding>
    </bodySiteCodeableConcept>
    
    <method>
     <coding>
         <system value="http://smarthealthit.org/terms/codes/BloodPressureMethod#"/>
         <code value="machine"/>
         <display value="machine"/>
     </coding>
    </method>
    
    <encounter>
      <reference value="Encounter/ID4"/>
    </encounter>
    

  </Observation>
  
  </resource>
  <transaction>
    <method value="PUT"/>
    <url value="Observation/ID4-bp"/>
  </transaction>
</entry>
<entry>
  <resource>
    
    
  <Observation>
  <id value="ID4-systolic"/>
    <text>
      <status value="generated"/>
      <div xmlns="http://www.w3.org/1999/xhtml">2008-01-16: Systolic blood pressure = 120 mm[Hg]</div>
    </text>
    <code>
      <coding>
        <system value="http://loinc.org"/>
        <code value="8480-6"/>
        <display value="Systolic blood pressure"/>
      </coding>
    </code>
    <valueQuantity>
      <value value="120.0"/>
      <units value="mm[Hg]"/>
      <system value="http://unitsofmeasure.org" />
      <code value="mm[Hg]"/>
    </valueQuantity>
    
    <appliesDateTime value="2008-01-16"/>
    <status value="final"/>
    <reliability value="ok"/>
    <subject>
      <reference value="Patient/ID9995679"/>
    </subject>
  </Observation>
  
  </resource>
  <transaction>
    <method value="PUT"/>
    <url value="Observation/ID4-systolic"/>
  </transaction>
</entry>
<entry>
  <resource>
    
    
  <Observation>
  <id value="ID4-diastolic"/>
    <text>
      <status value="generated"/>
      <div xmlns="http://www.w3.org/1999/xhtml">2008-01-16: Diastolic blood pressure = 58 mm[Hg]</div>
    </text>
    <code>
      <coding>
        <system value="http://loinc.org"/>
        <code value="8462-4"/>
        <display value="Diastolic blood pressure"/>
      </coding>
    </code>
    <valueQuantity>
      <value value="58.0"/>
      <units value="mm[Hg]"/>
      <system value="http://unitsofmeasure.org" />
      <code value="mm[Hg]"/>
    </valueQuantity>
    
    <appliesDateTime value="2008-01-16"/>
    <status value="final"/>
    <reliability value="ok"/>
    <subject>
      <reference value="Patient/ID9995679"/>
    </subject>
  </Observation>
  
  </resource>
  <transaction>
    <method value="PUT"/>
    <url value="Observation/ID4-diastolic"/>
  </transaction>
</entry>
  <entry>
  <resource>
    
    
  <Observation>
    <id value="ID5-bp"/>
    <extension url="http://fhir-registry.smarthealthit.org/StructureDefinition/vital-signs#position">
      <valueCodeableConcept>
         <coding>
             <system value="http://snomed.info/sct"/>
             <code value="33586001"/>
             <display value="sitting"/>
         </coding>
       </valueCodeableConcept>
    </extension>
    
    <text>
      <status value="generated"/>
      <div xmlns="http://www.w3.org/1999/xhtml">2008-06-25: Blood pressure 121/73 mmHg</div>
    </text>
    <code>
      <coding>
        <system value="http://loinc.org"/>
        <code value="55284-4"/>
        <display value="Blood pressure systolic and diastolic"/>
      </coding>
    </code>
    <appliesDateTime value="2008-06-25"/>
    <status value="final"/>
    <reliability value="ok"/>
    <subject>
      <reference value="Patient/ID9995679"/>
    </subject>
    <related>
      <type value="has-component"/>
      <target>
        <reference value="Observation/ID5-systolic"/>
      </target>
    </related>
    <related>
      <type value="has-component"/>
      <target>
        <reference value="Observation/ID5-diastolic"/>
      </target>
    </related>
    <bodySiteCodeableConcept>
     <coding>
         <system value="http://snomed.info/sct"/>
         <code value="368208006"/>
         <display value="left arm"/>
     </coding>
    </bodySiteCodeableConcept>
    
    <method>
     <coding>
         <system value="http://smarthealthit.org/terms/codes/BloodPressureMethod#"/>
         <code value="machine"/>
         <display value="machine"/>
     </coding>
    </method>
    
    <encounter>
      <reference value="Encounter/ID5"/>
    </encounter>
    

  </Observation>
  
  </resource>
  <transaction>
    <method value="PUT"/>
    <url value="Observation/ID5-bp"/>
  </transaction>
</entry>
<entry>
  <resource>
    
    
  <Observation>
  <id value="ID5-systolic"/>
    <text>
      <status value="generated"/>
      <div xmlns="http://www.w3.org/1999/xhtml">2008-06-25: Systolic blood pressure = 121 mm[Hg]</div>
    </text>
    <code>
      <coding>
        <system value="http://loinc.org"/>
        <code value="8480-6"/>
        <display value="Systolic blood pressure"/>
      </coding>
    </code>
    <valueQuantity>
      <value value="121.0"/>
      <units value="mm[Hg]"/>
      <system value="http://unitsofmeasure.org" />
      <code value="mm[Hg]"/>
    </valueQuantity>
    
    <appliesDateTime value="2008-06-25"/>
    <status value="final"/>
    <reliability value="ok"/>
    <subject>
      <reference value="Patient/ID9995679"/>
    </subject>
  </Observation>
  
  </resource>
  <transaction>
    <method value="PUT"/>
    <url value="Observation/ID5-systolic"/>
  </transaction>
</entry>
<entry>
  <resource>
    
    
  <Observation>
  <id value="ID5-diastolic"/>
    <text>
      <status value="generated"/>
      <div xmlns="http://www.w3.org/1999/xhtml">2008-06-25: Diastolic blood pressure = 73 mm[Hg]</div>
    </text>
    <code>
      <coding>
        <system value="http://loinc.org"/>
        <code value="8462-4"/>
        <display value="Diastolic blood pressure"/>
      </coding>
    </code>
    <valueQuantity>
      <value value="73.0"/>
      <units value="mm[Hg]"/>
      <system value="http://unitsofmeasure.org" />
      <code value="mm[Hg]"/>
    </valueQuantity>
    
    <appliesDateTime value="2008-06-25"/>
    <status value="final"/>
    <reliability value="ok"/>
    <subject>
      <reference value="Patient/ID9995679"/>
    </subject>
  </Observation>
  
  </resource>
  <transaction>
    <method value="PUT"/>
    <url value="Observation/ID5-diastolic"/>
  </transaction>
</entry>
  <entry>
  <resource>
    
    
  <Observation>
    <id value="ID6-bp"/>
    <extension url="http://fhir-registry.smarthealthit.org/StructureDefinition/vital-signs#position">
      <valueCodeableConcept>
         <coding>
             <system value="http://snomed.info/sct"/>
             <code value="33586001"/>
             <display value="sitting"/>
         </coding>
       </valueCodeableConcept>
    </extension>
    
    <text>
      <status value="generated"/>
      <div xmlns="http://www.w3.org/1999/xhtml">2008-06-25: Blood pressure 119/70 mmHg</div>
    </text>
    <code>
      <coding>
        <system value="http://loinc.org"/>
        <code value="55284-4"/>
        <display value="Blood pressure systolic and diastolic"/>
      </coding>
    </code>
    <appliesDateTime value="2008-06-25"/>
    <status value="final"/>
    <reliability value="ok"/>
    <subject>
      <reference value="Patient/ID9995679"/>
    </subject>
    <related>
      <type value="has-component"/>
      <target>
        <reference value="Observation/ID6-systolic"/>
      </target>
    </related>
    <related>
      <type value="has-component"/>
      <target>
        <reference value="Observation/ID6-diastolic"/>
      </target>
    </related>
    <bodySiteCodeableConcept>
     <coding>
         <system value="http://snomed.info/sct"/>
         <code value="368208006"/>
         <display value="left arm"/>
     </coding>
    </bodySiteCodeableConcept>
    
    <method>
     <coding>
         <system value="http://smarthealthit.org/terms/codes/BloodPressureMethod#"/>
         <code value="machine"/>
         <display value="machine"/>
     </coding>
    </method>
    
    <encounter>
      <reference value="Encounter/ID5"/>
    </encounter>
    

  </Observation>
  
  </resource>
  <transaction>
    <method value="PUT"/>
    <url value="Observation/ID6-bp"/>
  </transaction>
</entry>
<entry>
  <resource>
    
    
  <Observation>
  <id value="ID6-systolic"/>
    <text>
      <status value="generated"/>
      <div xmlns="http://www.w3.org/1999/xhtml">2008-06-25: Systolic blood pressure = 119 mm[Hg]</div>
    </text>
    <code>
      <coding>
        <system value="http://loinc.org"/>
        <code value="8480-6"/>
        <display value="Systolic blood pressure"/>
      </coding>
    </code>
    <valueQuantity>
      <value value="119.0"/>
      <units value="mm[Hg]"/>
      <system value="http://unitsofmeasure.org" />
      <code value="mm[Hg]"/>
    </valueQuantity>
    
    <appliesDateTime value="2008-06-25"/>
    <status value="final"/>
    <reliability value="ok"/>
    <subject>
      <reference value="Patient/ID9995679"/>
    </subject>
  </Observation>
  
  </resource>
  <transaction>
    <method value="PUT"/>
    <url value="Observation/ID6-systolic"/>
  </transaction>
</entry>
<entry>
  <resource>
    
    
  <Observation>
  <id value="ID6-diastolic"/>
    <text>
      <status value="generated"/>
      <div xmlns="http://www.w3.org/1999/xhtml">2008-06-25: Diastolic blood pressure = 70 mm[Hg]</div>
    </text>
    <code>
      <coding>
        <system value="http://loinc.org"/>
        <code value="8462-4"/>
        <display value="Diastolic blood pressure"/>
      </coding>
    </code>
    <valueQuantity>
      <value value="70.0"/>
      <units value="mm[Hg]"/>
      <system value="http://unitsofmeasure.org" />
      <code value="mm[Hg]"/>
    </valueQuantity>
    
    <appliesDateTime value="2008-06-25"/>
    <status value="final"/>
    <reliability value="ok"/>
    <subject>
      <reference value="Patient/ID9995679"/>
    </subject>
  </Observation>
  
  </resource>
  <transaction>
    <method value="PUT"/>
    <url value="Observation/ID6-diastolic"/>
  </transaction>
</entry>
  <entry>
  <resource>
    
    
  <Observation>
    <id value="ID7-bp"/>
    <text>
      <status value="generated"/>
      <div xmlns="http://www.w3.org/1999/xhtml">2009-06-10: Blood pressure 137/68 mmHg</div>
    </text>
    <code>
      <coding>
        <system value="http://loinc.org"/>
        <code value="55284-4"/>
        <display value="Blood pressure systolic and diastolic"/>
      </coding>
    </code>
    <appliesDateTime value="2009-06-10"/>
    <status value="final"/>
    <reliability value="ok"/>
    <subject>
      <reference value="Patient/ID9995679"/>
    </subject>
    <related>
      <type value="has-component"/>
      <target>
        <reference value="Observation/ID7-systolic"/>
      </target>
    </related>
    <related>
      <type value="has-component"/>
      <target>
        <reference value="Observation/ID7-diastolic"/>
      </target>
    </related>
    <bodySiteCodeableConcept>
     <coding>
         <system value="http://snomed.info/sct"/>
         <code value="368209003"/>
         <display value="right arm"/>
     </coding>
    </bodySiteCodeableConcept>
    
    <encounter>
      <reference value="Encounter/ID7"/>
    </encounter>
    

  </Observation>
  
  </resource>
  <transaction>
    <method value="PUT"/>
    <url value="Observation/ID7-bp"/>
  </transaction>
</entry>
<entry>
  <resource>
    
    
  <Observation>
  <id value="ID7-systolic"/>
    <text>
      <status value="generated"/>
      <div xmlns="http://www.w3.org/1999/xhtml">2009-06-10: Systolic blood pressure = 137 mm[Hg]</div>
    </text>
    <code>
      <coding>
        <system value="http://loinc.org"/>
        <code value="8480-6"/>
        <display value="Systolic blood pressure"/>
      </coding>
    </code>
    <valueQuantity>
      <value value="137.0"/>
      <units value="mm[Hg]"/>
      <system value="http://unitsofmeasure.org" />
      <code value="mm[Hg]"/>
    </valueQuantity>
    
    <appliesDateTime value="2009-06-10"/>
    <status value="final"/>
    <reliability value="ok"/>
    <subject>
      <reference value="Patient/ID9995679"/>
    </subject>
  </Observation>
  
  </resource>
  <transaction>
    <method value="PUT"/>
    <url value="Observation/ID7-systolic"/>
  </transaction>
</entry>
<entry>
  <resource>
    
    
  <Observation>
  <id value="ID7-diastolic"/>
    <text>
      <status value="generated"/>
      <div xmlns="http://www.w3.org/1999/xhtml">2009-06-10: Diastolic blood pressure = 68 mm[Hg]</div>
    </text>
    <code>
      <coding>
        <system value="http://loinc.org"/>
        <code value="8462-4"/>
        <display value="Diastolic blood pressure"/>
      </coding>
    </code>
    <valueQuantity>
      <value value="68.0"/>
      <units value="mm[Hg]"/>
      <system value="http://unitsofmeasure.org" />
      <code value="mm[Hg]"/>
    </valueQuantity>
    
    <appliesDateTime value="2009-06-10"/>
    <status value="final"/>
    <reliability value="ok"/>
    <subject>
      <reference value="Patient/ID9995679"/>
    </subject>
  </Observation>
  
  </resource>
  <transaction>
    <method value="PUT"/>
    <url value="Observation/ID7-diastolic"/>
  </transaction>
</entry>
  <entry>
  <resource>
    
    
  <Observation>
    <id value="ID8-bp"/>
    <extension url="http://fhir-registry.smarthealthit.org/StructureDefinition/vital-signs#position">
      <valueCodeableConcept>
         <coding>
             <system value="http://snomed.info/sct"/>
             <code value="40199007"/>
             <display value="supine"/>
         </coding>
       </valueCodeableConcept>
    </extension>
    
    <text>
      <status value="generated"/>
      <div xmlns="http://www.w3.org/1999/xhtml">2009-06-10: Blood pressure 168/86 mmHg</div>
    </text>
    <code>
      <coding>
        <system value="http://loinc.org"/>
        <code value="55284-4"/>
        <display value="Blood pressure systolic and diastolic"/>
      </coding>
    </code>
    <appliesDateTime value="2009-06-10"/>
    <status value="final"/>
    <reliability value="ok"/>
    <subject>
      <reference value="Patient/ID9995679"/>
    </subject>
    <related>
      <type value="has-component"/>
      <target>
        <reference value="Observation/ID8-systolic"/>
      </target>
    </related>
    <related>
      <type value="has-component"/>
      <target>
        <reference value="Observation/ID8-diastolic"/>
      </target>
    </related>
    <bodySiteCodeableConcept>
     <coding>
         <system value="http://snomed.info/sct"/>
         <code value="61396006"/>
         <display value="left thigh"/>
     </coding>
    </bodySiteCodeableConcept>
    
    <method>
     <coding>
         <system value="http://smarthealthit.org/terms/codes/BloodPressureMethod#"/>
         <code value="machine"/>
         <display value="machine"/>
     </coding>
    </method>
    
    <encounter>
      <reference value="Encounter/ID7"/>
    </encounter>
    

  </Observation>
  
  </resource>
  <transaction>
    <method value="PUT"/>
    <url value="Observation/ID8-bp"/>
  </transaction>
</entry>
<entry>
  <resource>
    
    
  <Observation>
  <id value="ID8-systolic"/>
    <text>
      <status value="generated"/>
      <div xmlns="http://www.w3.org/1999/xhtml">2009-06-10: Systolic blood pressure = 168 mm[Hg]</div>
    </text>
    <code>
      <coding>
        <system value="http://loinc.org"/>
        <code value="8480-6"/>
        <display value="Systolic blood pressure"/>
      </coding>
    </code>
    <valueQuantity>
      <value value="168.0"/>
      <units value="mm[Hg]"/>
      <system value="http://unitsofmeasure.org" />
      <code value="mm[Hg]"/>
    </valueQuantity>
    
    <appliesDateTime value="2009-06-10"/>
    <status value="final"/>
    <reliability value="ok"/>
    <subject>
      <reference value="Patient/ID9995679"/>
    </subject>
  </Observation>
  
  </resource>
  <transaction>
    <method value="PUT"/>
    <url value="Observation/ID8-systolic"/>
  </transaction>
</entry>
<entry>
  <resource>
    
    
  <Observation>
  <id value="ID8-diastolic"/>
    <text>
      <status value="generated"/>
      <div xmlns="http://www.w3.org/1999/xhtml">2009-06-10: Diastolic blood pressure = 86 mm[Hg]</div>
    </text>
    <code>
      <coding>
        <system value="http://loinc.org"/>
        <code value="8462-4"/>
        <display value="Diastolic blood pressure"/>
      </coding>
    </code>
    <valueQuantity>
      <value value="86.0"/>
      <units value="mm[Hg]"/>
      <system value="http://unitsofmeasure.org" />
      <code value="mm[Hg]"/>
    </valueQuantity>
    
    <appliesDateTime value="2009-06-10"/>
    <status value="final"/>
    <reliability value="ok"/>
    <subject>
      <reference value="Patient/ID9995679"/>
    </subject>
  </Observation>
  
  </resource>
  <transaction>
    <method value="PUT"/>
    <url value="Observation/ID8-diastolic"/>
  </transaction>
</entry>
  <entry>
  <resource>
    
    
  <Observation>
    <id value="ID9-bp"/>
    <extension url="http://fhir-registry.smarthealthit.org/StructureDefinition/vital-signs#position">
      <valueCodeableConcept>
         <coding>
             <system value="http://snomed.info/sct"/>
             <code value="40199007"/>
             <display value="supine"/>
         </coding>
       </valueCodeableConcept>
    </extension>
    
    <text>
      <status value="generated"/>
      <div xmlns="http://www.w3.org/1999/xhtml">2009-12-23: Blood pressure 122/66 mmHg</div>
    </text>
    <code>
      <coding>
        <system value="http://loinc.org"/>
        <code value="55284-4"/>
        <display value="Blood pressure systolic and diastolic"/>
      </coding>
    </code>
    <appliesDateTime value="2009-12-23"/>
    <status value="final"/>
    <reliability value="ok"/>
    <subject>
      <reference value="Patient/ID9995679"/>
    </subject>
    <related>
      <type value="has-component"/>
      <target>
        <reference value="Observation/ID9-systolic"/>
      </target>
    </related>
    <related>
      <type value="has-component"/>
      <target>
        <reference value="Observation/ID9-diastolic"/>
      </target>
    </related>
    <bodySiteCodeableConcept>
     <coding>
         <system value="http://snomed.info/sct"/>
         <code value="368208006"/>
         <display value="left arm"/>
     </coding>
    </bodySiteCodeableConcept>
    
    <method>
     <coding>
         <system value="http://smarthealthit.org/terms/codes/BloodPressureMethod#"/>
         <code value="machine"/>
         <display value="machine"/>
     </coding>
    </method>
    
    <encounter>
      <reference value="Encounter/ID9"/>
    </encounter>
    

  </Observation>
  
  </resource>
  <transaction>
    <method value="PUT"/>
    <url value="Observation/ID9-bp"/>
  </transaction>
</entry>
<entry>
  <resource>
    
    
  <Observation>
  <id value="ID9-systolic"/>
    <text>
      <status value="generated"/>
      <div xmlns="http://www.w3.org/1999/xhtml">2009-12-23: Systolic blood pressure = 122 mm[Hg]</div>
    </text>
    <code>
      <coding>
        <system value="http://loinc.org"/>
        <code value="8480-6"/>
        <display value="Systolic blood pressure"/>
      </coding>
    </code>
    <valueQuantity>
      <value value="122.0"/>
      <units value="mm[Hg]"/>
      <system value="http://unitsofmeasure.org" />
      <code value="mm[Hg]"/>
    </valueQuantity>
    
    <appliesDateTime value="2009-12-23"/>
    <status value="final"/>
    <reliability value="ok"/>
    <subject>
      <reference value="Patient/ID9995679"/>
    </subject>
  </Observation>
  
  </resource>
  <transaction>
    <method value="PUT"/>
    <url value="Observation/ID9-systolic"/>
  </transaction>
</entry>
<entry>
  <resource>
    
    
  <Observation>
  <id value="ID9-diastolic"/>
    <text>
      <status value="generated"/>
      <div xmlns="http://www.w3.org/1999/xhtml">2009-12-23: Diastolic blood pressure = 66 mm[Hg]</div>
    </text>
    <code>
      <coding>
        <system value="http://loinc.org"/>
        <code value="8462-4"/>
        <display value="Diastolic blood pressure"/>
      </coding>
    </code>
    <valueQuantity>
      <value value="66.0"/>
      <units value="mm[Hg]"/>
      <system value="http://unitsofmeasure.org" />
      <code value="mm[Hg]"/>
    </valueQuantity>
    
    <appliesDateTime value="2009-12-23"/>
    <status value="final"/>
    <reliability value="ok"/>
    <subject>
      <reference value="Patient/ID9995679"/>
    </subject>
  </Observation>
  
  </resource>
  <transaction>
    <method value="PUT"/>
    <url value="Observation/ID9-diastolic"/>
  </transaction>
</entry>
  <entry>
  <resource>
    
    
  <Observation>
    <id value="ID10-bp"/>
    <extension url="http://fhir-registry.smarthealthit.org/StructureDefinition/vital-signs#position">
      <valueCodeableConcept>
         <coding>
             <system value="http://snomed.info/sct"/>
             <code value="40199007"/>
             <display value="supine"/>
         </coding>
       </valueCodeableConcept>
    </extension>
    
    <text>
      <status value="generated"/>
      <div xmlns="http://www.w3.org/1999/xhtml">2009-12-23: Blood pressure 121/65 mmHg</div>
    </text>
    <code>
      <coding>
        <system value="http://loinc.org"/>
        <code value="55284-4"/>
        <display value="Blood pressure systolic and diastolic"/>
      </coding>
    </code>
    <appliesDateTime value="2009-12-23"/>
    <status value="final"/>
    <reliability value="ok"/>
    <subject>
      <reference value="Patient/ID9995679"/>
    </subject>
    <related>
      <type value="has-component"/>
      <target>
        <reference value="Observation/ID10-systolic"/>
      </target>
    </related>
    <related>
      <type value="has-component"/>
      <target>
        <reference value="Observation/ID10-diastolic"/>
      </target>
    </related>
    <bodySiteCodeableConcept>
     <coding>
         <system value="http://snomed.info/sct"/>
         <code value="368209003"/>
         <display value="right arm"/>
     </coding>
    </bodySiteCodeableConcept>
    
    <method>
     <coding>
         <system value="http://smarthealthit.org/terms/codes/BloodPressureMethod#"/>
         <code value="machine"/>
         <display value="machine"/>
     </coding>
    </method>
    
    <encounter>
      <reference value="Encounter/ID9"/>
    </encounter>
    

  </Observation>
  
  </resource>
  <transaction>
    <method value="PUT"/>
    <url value="Observation/ID10-bp"/>
  </transaction>
</entry>
<entry>
  <resource>
    
    
  <Observation>
  <id value="ID10-systolic"/>
    <text>
      <status value="generated"/>
      <div xmlns="http://www.w3.org/1999/xhtml">2009-12-23: Systolic blood pressure = 121 mm[Hg]</div>
    </text>
    <code>
      <coding>
        <system value="http://loinc.org"/>
        <code value="8480-6"/>
        <display value="Systolic blood pressure"/>
      </coding>
    </code>
    <valueQuantity>
      <value value="121.0"/>
      <units value="mm[Hg]"/>
      <system value="http://unitsofmeasure.org" />
      <code value="mm[Hg]"/>
    </valueQuantity>
    
    <appliesDateTime value="2009-12-23"/>
    <status value="final"/>
    <reliability value="ok"/>
    <subject>
      <reference value="Patient/ID9995679"/>
    </subject>
  </Observation>
  
  </resource>
  <transaction>
    <method value="PUT"/>
    <url value="Observation/ID10-systolic"/>
  </transaction>
</entry>
<entry>
  <resource>
    
    
  <Observation>
  <id value="ID10-diastolic"/>
    <text>
      <status value="generated"/>
      <div xmlns="http://www.w3.org/1999/xhtml">2009-12-23: Diastolic blood pressure = 65 mm[Hg]</div>
    </text>
    <code>
      <coding>
        <system value="http://loinc.org"/>
        <code value="8462-4"/>
        <display value="Diastolic blood pressure"/>
      </coding>
    </code>
    <valueQuantity>
      <value value="65.0"/>
      <units value="mm[Hg]"/>
      <system value="http://unitsofmeasure.org" />
      <code value="mm[Hg]"/>
    </valueQuantity>
    
    <appliesDateTime value="2009-12-23"/>
    <status value="final"/>
    <reliability value="ok"/>
    <subject>
      <reference value="Patient/ID9995679"/>
    </subject>
  </Observation>
  
  </resource>
  <transaction>
    <method value="PUT"/>
    <url value="Observation/ID10-diastolic"/>
  </transaction>
</entry>
  <entry>
  <resource>
    
    
  <Observation>
    <id value="ID11-bp"/>
    <extension url="http://fhir-registry.smarthealthit.org/StructureDefinition/vital-signs#position">
      <valueCodeableConcept>
         <coding>
             <system value="http://snomed.info/sct"/>
             <code value="40199007"/>
             <display value="supine"/>
         </coding>
       </valueCodeableConcept>
    </extension>
    
    <text>
      <status value="generated"/>
      <div xmlns="http://www.w3.org/1999/xhtml">2009-12-23: Blood pressure 119/60 mmHg</div>
    </text>
    <code>
      <coding>
        <system value="http://loinc.org"/>
        <code value="55284-4"/>
        <display value="Blood pressure systolic and diastolic"/>
      </coding>
    </code>
    <appliesDateTime value="2009-12-23"/>
    <status value="final"/>
    <reliability value="ok"/>
    <subject>
      <reference value="Patient/ID9995679"/>
    </subject>
    <related>
      <type value="has-component"/>
      <target>
        <reference value="Observation/ID11-systolic"/>
      </target>
    </related>
    <related>
      <type value="has-component"/>
      <target>
        <reference value="Observation/ID11-diastolic"/>
      </target>
    </related>
    <bodySiteCodeableConcept>
     <coding>
         <system value="http://snomed.info/sct"/>
         <code value="368209003"/>
         <display value="right arm"/>
     </coding>
    </bodySiteCodeableConcept>
    
    <method>
     <coding>
         <system value="http://smarthealthit.org/terms/codes/BloodPressureMethod#"/>
         <code value="machine"/>
         <display value="machine"/>
     </coding>
    </method>
    
    <encounter>
      <reference value="Encounter/ID9"/>
    </encounter>
    

  </Observation>
  
  </resource>
  <transaction>
    <method value="PUT"/>
    <url value="Observation/ID11-bp"/>
  </transaction>
</entry>
<entry>
  <resource>
    
    
  <Observation>
  <id value="ID11-systolic"/>
    <text>
      <status value="generated"/>
      <div xmlns="http://www.w3.org/1999/xhtml">2009-12-23: Systolic blood pressure = 119 mm[Hg]</div>
    </text>
    <code>
      <coding>
        <system value="http://loinc.org"/>
        <code value="8480-6"/>
        <display value="Systolic blood pressure"/>
      </coding>
    </code>
    <valueQuantity>
      <value value="119.0"/>
      <units value="mm[Hg]"/>
      <system value="http://unitsofmeasure.org" />
      <code value="mm[Hg]"/>
    </valueQuantity>
    
    <appliesDateTime value="2009-12-23"/>
    <status value="final"/>
    <reliability value="ok"/>
    <subject>
      <reference value="Patient/ID9995679"/>
    </subject>
  </Observation>
  
  </resource>
  <transaction>
    <method value="PUT"/>
    <url value="Observation/ID11-systolic"/>
  </transaction>
</entry>
<entry>
  <resource>
    
    
  <Observation>
  <id value="ID11-diastolic"/>
    <text>
      <status value="generated"/>
      <div xmlns="http://www.w3.org/1999/xhtml">2009-12-23: Diastolic blood pressure = 60 mm[Hg]</div>
    </text>
    <code>
      <coding>
        <system value="http://loinc.org"/>
        <code value="8462-4"/>
        <display value="Diastolic blood pressure"/>
      </coding>
    </code>
    <valueQuantity>
      <value value="60.0"/>
      <units value="mm[Hg]"/>
      <system value="http://unitsofmeasure.org" />
      <code value="mm[Hg]"/>
    </valueQuantity>
    
    <appliesDateTime value="2009-12-23"/>
    <status value="final"/>
    <reliability value="ok"/>
    <subject>
      <reference value="Patient/ID9995679"/>
    </subject>
  </Observation>
  
  </resource>
  <transaction>
    <method value="PUT"/>
    <url value="Observation/ID11-diastolic"/>
  </transaction>
</entry>
  <entry>
  <resource>
    
    
  <Observation>
    <id value="ID12-bp"/>
    <extension url="http://fhir-registry.smarthealthit.org/StructureDefinition/vital-signs#position">
      <valueCodeableConcept>
         <coding>
             <system value="http://snomed.info/sct"/>
             <code value="40199007"/>
             <display value="supine"/>
         </coding>
       </valueCodeableConcept>
    </extension>
    
    <text>
      <status value="generated"/>
      <div xmlns="http://www.w3.org/1999/xhtml">2009-12-23: Blood pressure 121/57 mmHg</div>
    </text>
    <code>
      <coding>
        <system value="http://loinc.org"/>
        <code value="55284-4"/>
        <display value="Blood pressure systolic and diastolic"/>
      </coding>
    </code>
    <appliesDateTime value="2009-12-23"/>
    <status value="final"/>
    <reliability value="ok"/>
    <subject>
      <reference value="Patient/ID9995679"/>
    </subject>
    <related>
      <type value="has-component"/>
      <target>
        <reference value="Observation/ID12-systolic"/>
      </target>
    </related>
    <related>
      <type value="has-component"/>
      <target>
        <reference value="Observation/ID12-diastolic"/>
      </target>
    </related>
    <bodySiteCodeableConcept>
     <coding>
         <system value="http://snomed.info/sct"/>
         <code value="368209003"/>
         <display value="right arm"/>
     </coding>
    </bodySiteCodeableConcept>
    
    <method>
     <coding>
         <system value="http://smarthealthit.org/terms/codes/BloodPressureMethod#"/>
         <code value="machine"/>
         <display value="machine"/>
     </coding>
    </method>
    
    <encounter>
      <reference value="Encounter/ID9"/>
    </encounter>
    

  </Observation>
  
  </resource>
  <transaction>
    <method value="PUT"/>
    <url value="Observation/ID12-bp"/>
  </transaction>
</entry>
<entry>
  <resource>
    
    
  <Observation>
  <id value="ID12-systolic"/>
    <text>
      <status value="generated"/>
      <div xmlns="http://www.w3.org/1999/xhtml">2009-12-23: Systolic blood pressure = 121 mm[Hg]</div>
    </text>
    <code>
      <coding>
        <system value="http://loinc.org"/>
        <code value="8480-6"/>
        <display value="Systolic blood pressure"/>
      </coding>
    </code>
    <valueQuantity>
      <value value="121.0"/>
      <units value="mm[Hg]"/>
      <system value="http://unitsofmeasure.org" />
      <code value="mm[Hg]"/>
    </valueQuantity>
    
    <appliesDateTime value="2009-12-23"/>
    <status value="final"/>
    <reliability value="ok"/>
    <subject>
      <reference value="Patient/ID9995679"/>
    </subject>
  </Observation>
  
  </resource>
  <transaction>
    <method value="PUT"/>
    <url value="Observation/ID12-systolic"/>
  </transaction>
</entry>
<entry>
  <resource>
    
    
  <Observation>
  <id value="ID12-diastolic"/>
    <text>
      <status value="generated"/>
      <div xmlns="http://www.w3.org/1999/xhtml">2009-12-23: Diastolic blood pressure = 57 mm[Hg]</div>
    </text>
    <code>
      <coding>
        <system value="http://loinc.org"/>
        <code value="8462-4"/>
        <display value="Diastolic blood pressure"/>
      </coding>
    </code>
    <valueQuantity>
      <value value="57.0"/>
      <units value="mm[Hg]"/>
      <system value="http://unitsofmeasure.org" />
      <code value="mm[Hg]"/>
    </valueQuantity>
    
    <appliesDateTime value="2009-12-23"/>
    <status value="final"/>
    <reliability value="ok"/>
    <subject>
      <reference value="Patient/ID9995679"/>
    </subject>
  </Observation>
  
  </resource>
  <transaction>
    <method value="PUT"/>
    <url value="Observation/ID12-diastolic"/>
  </transaction>
</entry>
  <entry>
  <resource>
    
    
  <Observation>
    <id value="ID13-bp"/>
    <extension url="http://fhir-registry.smarthealthit.org/StructureDefinition/vital-signs#position">
      <valueCodeableConcept>
         <coding>
             <system value="http://snomed.info/sct"/>
             <code value="40199007"/>
             <display value="supine"/>
         </coding>
       </valueCodeableConcept>
    </extension>
    
    <text>
      <status value="generated"/>
      <div xmlns="http://www.w3.org/1999/xhtml">2009-12-23: Blood pressure 131/71 mmHg</div>
    </text>
    <code>
      <coding>
        <system value="http://loinc.org"/>
        <code value="55284-4"/>
        <display value="Blood pressure systolic and diastolic"/>
      </coding>
    </code>
    <appliesDateTime value="2009-12-23"/>
    <status value="final"/>
    <reliability value="ok"/>
    <subject>
      <reference value="Patient/ID9995679"/>
    </subject>
    <related>
      <type value="has-component"/>
      <target>
        <reference value="Observation/ID13-systolic"/>
      </target>
    </related>
    <related>
      <type value="has-component"/>
      <target>
        <reference value="Observation/ID13-diastolic"/>
      </target>
    </related>
    <bodySiteCodeableConcept>
     <coding>
         <system value="http://snomed.info/sct"/>
         <code value="368209003"/>
         <display value="right arm"/>
     </coding>
    </bodySiteCodeableConcept>
    
    <method>
     <coding>
         <system value="http://smarthealthit.org/terms/codes/BloodPressureMethod#"/>
         <code value="machine"/>
         <display value="machine"/>
     </coding>
    </method>
    
    <encounter>
      <reference value="Encounter/ID9"/>
    </encounter>
    

  </Observation>
  
  </resource>
  <transaction>
    <method value="PUT"/>
    <url value="Observation/ID13-bp"/>
  </transaction>
</entry>
<entry>
  <resource>
    
    
  <Observation>
  <id value="ID13-systolic"/>
    <text>
      <status value="generated"/>
      <div xmlns="http://www.w3.org/1999/xhtml">2009-12-23: Systolic blood pressure = 131 mm[Hg]</div>
    </text>
    <code>
      <coding>
        <system value="http://loinc.org"/>
        <code value="8480-6"/>
        <display value="Systolic blood pressure"/>
      </coding>
    </code>
    <valueQuantity>
      <value value="131.0"/>
      <units value="mm[Hg]"/>
      <system value="http://unitsofmeasure.org" />
      <code value="mm[Hg]"/>
    </valueQuantity>
    
    <appliesDateTime value="2009-12-23"/>
    <status value="final"/>
    <reliability value="ok"/>
    <subject>
      <reference value="Patient/ID9995679"/>
    </subject>
  </Observation>
  
  </resource>
  <transaction>
    <method value="PUT"/>
    <url value="Observation/ID13-systolic"/>
  </transaction>
</entry>
<entry>
  <resource>
    
    
  <Observation>
  <id value="ID13-diastolic"/>
    <text>
      <status value="generated"/>
      <div xmlns="http://www.w3.org/1999/xhtml">2009-12-23: Diastolic blood pressure = 71 mm[Hg]</div>
    </text>
    <code>
      <coding>
        <system value="http://loinc.org"/>
        <code value="8462-4"/>
        <display value="Diastolic blood pressure"/>
      </coding>
    </code>
    <valueQuantity>
      <value value="71.0"/>
      <units value="mm[Hg]"/>
      <system value="http://unitsofmeasure.org" />
      <code value="mm[Hg]"/>
    </valueQuantity>
    
    <appliesDateTime value="2009-12-23"/>
    <status value="final"/>
    <reliability value="ok"/>
    <subject>
      <reference value="Patient/ID9995679"/>
    </subject>
  </Observation>
  
  </resource>
  <transaction>
    <method value="PUT"/>
    <url value="Observation/ID13-diastolic"/>
  </transaction>
</entry>
  <entry>
  <resource>
    
    
  <Observation>
    <id value="ID14-bp"/>
    <extension url="http://fhir-registry.smarthealthit.org/StructureDefinition/vital-signs#position">
      <valueCodeableConcept>
         <coding>
             <system value="http://snomed.info/sct"/>
             <code value="40199007"/>
             <display value="supine"/>
         </coding>
       </valueCodeableConcept>
    </extension>
    
    <text>
      <status value="generated"/>
      <div xmlns="http://www.w3.org/1999/xhtml">2009-12-23: Blood pressure 123/58 mmHg</div>
    </text>
    <code>
      <coding>
        <system value="http://loinc.org"/>
        <code value="55284-4"/>
        <display value="Blood pressure systolic and diastolic"/>
      </coding>
    </code>
    <appliesDateTime value="2009-12-23"/>
    <status value="final"/>
    <reliability value="ok"/>
    <subject>
      <reference value="Patient/ID9995679"/>
    </subject>
    <related>
      <type value="has-component"/>
      <target>
        <reference value="Observation/ID14-systolic"/>
      </target>
    </related>
    <related>
      <type value="has-component"/>
      <target>
        <reference value="Observation/ID14-diastolic"/>
      </target>
    </related>
    <bodySiteCodeableConcept>
     <coding>
         <system value="http://snomed.info/sct"/>
         <code value="368209003"/>
         <display value="right arm"/>
     </coding>
    </bodySiteCodeableConcept>
    
    <method>
     <coding>
         <system value="http://smarthealthit.org/terms/codes/BloodPressureMethod#"/>
         <code value="machine"/>
         <display value="machine"/>
     </coding>
    </method>
    
    <encounter>
      <reference value="Encounter/ID9"/>
    </encounter>
    

  </Observation>
  
  </resource>
  <transaction>
    <method value="PUT"/>
    <url value="Observation/ID14-bp"/>
  </transaction>
</entry>
<entry>
  <resource>
    
    
  <Observation>
  <id value="ID14-systolic"/>
    <text>
      <status value="generated"/>
      <div xmlns="http://www.w3.org/1999/xhtml">2009-12-23: Systolic blood pressure = 123 mm[Hg]</div>
    </text>
    <code>
      <coding>
        <system value="http://loinc.org"/>
        <code value="8480-6"/>
        <display value="Systolic blood pressure"/>
      </coding>
    </code>
    <valueQuantity>
      <value value="123.0"/>
      <units value="mm[Hg]"/>
      <system value="http://unitsofmeasure.org" />
      <code value="mm[Hg]"/>
    </valueQuantity>
    
    <appliesDateTime value="2009-12-23"/>
    <status value="final"/>
    <reliability value="ok"/>
    <subject>
      <reference value="Patient/ID9995679"/>
    </subject>
  </Observation>
  
  </resource>
  <transaction>
    <method value="PUT"/>
    <url value="Observation/ID14-systolic"/>
  </transaction>
</entry>
<entry>
  <resource>
    
    
  <Observation>
  <id value="ID14-diastolic"/>
    <text>
      <status value="generated"/>
      <div xmlns="http://www.w3.org/1999/xhtml">2009-12-23: Diastolic blood pressure = 58 mm[Hg]</div>
    </text>
    <code>
      <coding>
        <system value="http://loinc.org"/>
        <code value="8462-4"/>
        <display value="Diastolic blood pressure"/>
      </coding>
    </code>
    <valueQuantity>
      <value value="58.0"/>
      <units value="mm[Hg]"/>
      <system value="http://unitsofmeasure.org" />
      <code value="mm[Hg]"/>
    </valueQuantity>
    
    <appliesDateTime value="2009-12-23"/>
    <status value="final"/>
    <reliability value="ok"/>
    <subject>
      <reference value="Patient/ID9995679"/>
    </subject>
  </Observation>
  
  </resource>
  <transaction>
    <method value="PUT"/>
    <url value="Observation/ID14-diastolic"/>
  </transaction>
</entry>
  <entry>
  <resource>
    
    
  <Observation>
    <id value="ID15-bp"/>
    <extension url="http://fhir-registry.smarthealthit.org/StructureDefinition/vital-signs#position">
      <valueCodeableConcept>
         <coding>
             <system value="http://snomed.info/sct"/>
             <code value="33586001"/>
             <display value="sitting"/>
         </coding>
       </valueCodeableConcept>
    </extension>
    
    <text>
      <status value="generated"/>
      <div xmlns="http://www.w3.org/1999/xhtml">2010-12-22: Blood pressure 123/59 mmHg</div>
    </text>
    <code>
      <coding>
        <system value="http://loinc.org"/>
        <code value="55284-4"/>
        <display value="Blood pressure systolic and diastolic"/>
      </coding>
    </code>
    <appliesDateTime value="2010-12-22"/>
    <status value="final"/>
    <reliability value="ok"/>
    <subject>
      <reference value="Patient/ID9995679"/>
    </subject>
    <related>
      <type value="has-component"/>
      <target>
        <reference value="Observation/ID15-systolic"/>
      </target>
    </related>
    <related>
      <type value="has-component"/>
      <target>
        <reference value="Observation/ID15-diastolic"/>
      </target>
    </related>
    <bodySiteCodeableConcept>
     <coding>
         <system value="http://snomed.info/sct"/>
         <code value="368209003"/>
         <display value="right arm"/>
     </coding>
    </bodySiteCodeableConcept>
    
    <method>
     <coding>
         <system value="http://smarthealthit.org/terms/codes/BloodPressureMethod#"/>
         <code value="machine"/>
         <display value="machine"/>
     </coding>
    </method>
    
    <encounter>
      <reference value="Encounter/ID15"/>
    </encounter>
    

  </Observation>
  
  </resource>
  <transaction>
    <method value="PUT"/>
    <url value="Observation/ID15-bp"/>
  </transaction>
</entry>
<entry>
  <resource>
    
    
  <Observation>
  <id value="ID15-systolic"/>
    <text>
      <status value="generated"/>
      <div xmlns="http://www.w3.org/1999/xhtml">2010-12-22: Systolic blood pressure = 123 mm[Hg]</div>
    </text>
    <code>
      <coding>
        <system value="http://loinc.org"/>
        <code value="8480-6"/>
        <display value="Systolic blood pressure"/>
      </coding>
    </code>
    <valueQuantity>
      <value value="123.0"/>
      <units value="mm[Hg]"/>
      <system value="http://unitsofmeasure.org" />
      <code value="mm[Hg]"/>
    </valueQuantity>
    
    <appliesDateTime value="2010-12-22"/>
    <status value="final"/>
    <reliability value="ok"/>
    <subject>
      <reference value="Patient/ID9995679"/>
    </subject>
  </Observation>
  
  </resource>
  <transaction>
    <method value="PUT"/>
    <url value="Observation/ID15-systolic"/>
  </transaction>
</entry>
<entry>
  <resource>
    
    
  <Observation>
  <id value="ID15-diastolic"/>
    <text>
      <status value="generated"/>
      <div xmlns="http://www.w3.org/1999/xhtml">2010-12-22: Diastolic blood pressure = 59 mm[Hg]</div>
    </text>
    <code>
      <coding>
        <system value="http://loinc.org"/>
        <code value="8462-4"/>
        <display value="Diastolic blood pressure"/>
      </coding>
    </code>
    <valueQuantity>
      <value value="59.0"/>
      <units value="mm[Hg]"/>
      <system value="http://unitsofmeasure.org" />
      <code value="mm[Hg]"/>
    </valueQuantity>
    
    <appliesDateTime value="2010-12-22"/>
    <status value="final"/>
    <reliability value="ok"/>
    <subject>
      <reference value="Patient/ID9995679"/>
    </subject>
  </Observation>
  
  </resource>
  <transaction>
    <method value="PUT"/>
    <url value="Observation/ID15-diastolic"/>
  </transaction>
</entry>
<entry>
  <resource>
    
    
  <Observation>
  <id value="ID1-height"/>
    <text>
      <status value="generated"/>
      <div xmlns="http://www.w3.org/1999/xhtml">2006-12-27: height = 198.0 cm</div>
    </text>
    <code>
      <coding>
        <system value="http://loinc.org"/>
        <code value="8302-2"/>
        <display value="height"/>
      </coding>
    </code>
    <valueQuantity>
      <value value="198.0"/>
      <units value="cm"/>
      <system value="http://unitsofmeasure.org" />
      <code value="cm"/>
    </valueQuantity>
    
    <appliesDateTime value="2006-12-27"/>
    <status value="final"/>
    <reliability value="ok"/>
    <subject>
      <reference value="Patient/ID9995679"/>
    </subject>
    <encounter>
      <reference value="Encounter/ID1"/>
    </encounter>
    
  </Observation>
  
  </resource>
  <transaction>
    <method value="PUT"/>
    <url value="Observation/ID1-height"/>
  </transaction>
</entry>
<entry>
  <resource>
    
    
  <Observation>
  <id value="ID1-heartrate"/>
    <text>
      <status value="generated"/>
      <div xmlns="http://www.w3.org/1999/xhtml">2006-12-27: heart_rate = 54.0 {beats}/min</div>
    </text>
    <code>
      <coding>
        <system value="http://loinc.org"/>
        <code value="8867-4"/>
        <display value="heart_rate"/>
      </coding>
    </code>
    <valueQuantity>
      <value value="54.0"/>
      <units value="{beats}/min"/>
      <system value="http://unitsofmeasure.org" />
      <code value="{beats}/min"/>
    </valueQuantity>
    
    <appliesDateTime value="2006-12-27"/>
    <status value="final"/>
    <reliability value="ok"/>
    <subject>
      <reference value="Patient/ID9995679"/>
    </subject>
    <encounter>
      <reference value="Encounter/ID1"/>
    </encounter>
    
  </Observation>
  
  </resource>
  <transaction>
    <method value="PUT"/>
    <url value="Observation/ID1-heartrate"/>
  </transaction>
</entry>
<entry>
  <resource>
    
    
  <Observation>
  <id value="ID1-weight"/>
    <text>
      <status value="generated"/>
      <div xmlns="http://www.w3.org/1999/xhtml">2006-12-27: weight = 86.0 kg</div>
    </text>
    <code>
      <coding>
        <system value="http://loinc.org"/>
        <code value="3141-9"/>
        <display value="weight"/>
      </coding>
    </code>
    <valueQuantity>
      <value value="86.0"/>
      <units value="kg"/>
      <system value="http://unitsofmeasure.org" />
      <code value="kg"/>
    </valueQuantity>
    
    <appliesDateTime value="2006-12-27"/>
    <status value="final"/>
    <reliability value="ok"/>
    <subject>
      <reference value="Patient/ID9995679"/>
    </subject>
    <encounter>
      <reference value="Encounter/ID1"/>
    </encounter>
    
  </Observation>
  
  </resource>
  <transaction>
    <method value="PUT"/>
    <url value="Observation/ID1-weight"/>
  </transaction>
</entry>
<entry>
  <resource>
    
    
  <Observation>
  <id value="ID2-height"/>
    <text>
      <status value="generated"/>
      <div xmlns="http://www.w3.org/1999/xhtml">2007-04-18: height = 197.5 cm</div>
    </text>
    <code>
      <coding>
        <system value="http://loinc.org"/>
        <code value="8302-2"/>
        <display value="height"/>
      </coding>
    </code>
    <valueQuantity>
      <value value="197.5"/>
      <units value="cm"/>
      <system value="http://unitsofmeasure.org" />
      <code value="cm"/>
    </valueQuantity>
    
    <appliesDateTime value="2007-04-18"/>
    <status value="final"/>
    <reliability value="ok"/>
    <subject>
      <reference value="Patient/ID9995679"/>
    </subject>
    <encounter>
      <reference value="Encounter/ID2"/>
    </encounter>
    
  </Observation>
  
  </resource>
  <transaction>
    <method value="PUT"/>
    <url value="Observation/ID2-height"/>
  </transaction>
</entry>
<entry>
  <resource>
    
    
  <Observation>
  <id value="ID2-heartrate"/>
    <text>
      <status value="generated"/>
      <div xmlns="http://www.w3.org/1999/xhtml">2007-04-18: heart_rate = 60.0 {beats}/min</div>
    </text>
    <code>
      <coding>
        <system value="http://loinc.org"/>
        <code value="8867-4"/>
        <display value="heart_rate"/>
      </coding>
    </code>
    <valueQuantity>
      <value value="60.0"/>
      <units value="{beats}/min"/>
      <system value="http://unitsofmeasure.org" />
      <code value="{beats}/min"/>
    </valueQuantity>
    
    <appliesDateTime value="2007-04-18"/>
    <status value="final"/>
    <reliability value="ok"/>
    <subject>
      <reference value="Patient/ID9995679"/>
    </subject>
    <encounter>
      <reference value="Encounter/ID2"/>
    </encounter>
    
  </Observation>
  
  </resource>
  <transaction>
    <method value="PUT"/>
    <url value="Observation/ID2-heartrate"/>
  </transaction>
</entry>
<entry>
  <resource>
    
    
  <Observation>
  <id value="ID2-weight"/>
    <text>
      <status value="generated"/>
      <div xmlns="http://www.w3.org/1999/xhtml">2007-04-18: weight = 87.0 kg</div>
    </text>
    <code>
      <coding>
        <system value="http://loinc.org"/>
        <code value="3141-9"/>
        <display value="weight"/>
      </coding>
    </code>
    <valueQuantity>
      <value value="87.0"/>
      <units value="kg"/>
      <system value="http://unitsofmeasure.org" />
      <code value="kg"/>
    </valueQuantity>
    
    <appliesDateTime value="2007-04-18"/>
    <status value="final"/>
    <reliability value="ok"/>
    <subject>
      <reference value="Patient/ID9995679"/>
    </subject>
    <encounter>
      <reference value="Encounter/ID2"/>
    </encounter>
    
  </Observation>
  
  </resource>
  <transaction>
    <method value="PUT"/>
    <url value="Observation/ID2-weight"/>
  </transaction>
</entry>
<entry>
  <resource>
    
    
  <Observation>
  <id value="ID3-height"/>
    <text>
      <status value="generated"/>
      <div xmlns="http://www.w3.org/1999/xhtml">2007-07-18: height = 197.0 cm</div>
    </text>
    <code>
      <coding>
        <system value="http://loinc.org"/>
        <code value="8302-2"/>
        <display value="height"/>
      </coding>
    </code>
    <valueQuantity>
      <value value="197.0"/>
      <units value="cm"/>
      <system value="http://unitsofmeasure.org" />
      <code value="cm"/>
    </valueQuantity>
    
    <appliesDateTime value="2007-07-18"/>
    <status value="final"/>
    <reliability value="ok"/>
    <subject>
      <reference value="Patient/ID9995679"/>
    </subject>
    <encounter>
      <reference value="Encounter/ID3"/>
    </encounter>
    
  </Observation>
  
  </resource>
  <transaction>
    <method value="PUT"/>
    <url value="Observation/ID3-height"/>
  </transaction>
</entry>
<entry>
  <resource>
    
    
  <Observation>
  <id value="ID3-heartrate"/>
    <text>
      <status value="generated"/>
      <div xmlns="http://www.w3.org/1999/xhtml">2007-07-18: heart_rate = 80.0 {beats}/min</div>
    </text>
    <code>
      <coding>
        <system value="http://loinc.org"/>
        <code value="8867-4"/>
        <display value="heart_rate"/>
      </coding>
    </code>
    <valueQuantity>
      <value value="80.0"/>
      <units value="{beats}/min"/>
      <system value="http://unitsofmeasure.org" />
      <code value="{beats}/min"/>
    </valueQuantity>
    
    <appliesDateTime value="2007-07-18"/>
    <status value="final"/>
    <reliability value="ok"/>
    <subject>
      <reference value="Patient/ID9995679"/>
    </subject>
    <encounter>
      <reference value="Encounter/ID3"/>
    </encounter>
    
  </Observation>
  
  </resource>
  <transaction>
    <method value="PUT"/>
    <url value="Observation/ID3-heartrate"/>
  </transaction>
</entry>
<entry>
  <resource>
    
    
  <Observation>
  <id value="ID3-weight"/>
    <text>
      <status value="generated"/>
      <div xmlns="http://www.w3.org/1999/xhtml">2007-07-18: weight = 90.2 kg</div>
    </text>
    <code>
      <coding>
        <system value="http://loinc.org"/>
        <code value="3141-9"/>
        <display value="weight"/>
      </coding>
    </code>
    <valueQuantity>
      <value value="90.2"/>
      <units value="kg"/>
      <system value="http://unitsofmeasure.org" />
      <code value="kg"/>
    </valueQuantity>
    
    <appliesDateTime value="2007-07-18"/>
    <status value="final"/>
    <reliability value="ok"/>
    <subject>
      <reference value="Patient/ID9995679"/>
    </subject>
    <encounter>
      <reference value="Encounter/ID3"/>
    </encounter>
    
  </Observation>
  
  </resource>
  <transaction>
    <method value="PUT"/>
    <url value="Observation/ID3-weight"/>
  </transaction>
</entry>
<entry>
  <resource>
    
    
  <Observation>
  <id value="ID4-height"/>
    <text>
      <status value="generated"/>
      <div xmlns="http://www.w3.org/1999/xhtml">2008-01-16: height = 197.5 cm</div>
    </text>
    <code>
      <coding>
        <system value="http://loinc.org"/>
        <code value="8302-2"/>
        <display value="height"/>
      </coding>
    </code>
    <valueQuantity>
      <value value="197.5"/>
      <units value="cm"/>
      <system value="http://unitsofmeasure.org" />
      <code value="cm"/>
    </valueQuantity>
    
    <appliesDateTime value="2008-01-16"/>
    <status value="final"/>
    <reliability value="ok"/>
    <subject>
      <reference value="Patient/ID9995679"/>
    </subject>
    <encounter>
      <reference value="Encounter/ID4"/>
    </encounter>
    
  </Observation>
  
  </resource>
  <transaction>
    <method value="PUT"/>
    <url value="Observation/ID4-height"/>
  </transaction>
</entry>
<entry>
  <resource>
    
    
  <Observation>
  <id value="ID4-heartrate"/>
    <text>
      <status value="generated"/>
      <div xmlns="http://www.w3.org/1999/xhtml">2008-01-16: heart_rate = 47.0 {beats}/min</div>
    </text>
    <code>
      <coding>
        <system value="http://loinc.org"/>
        <code value="8867-4"/>
        <display value="heart_rate"/>
      </coding>
    </code>
    <valueQuantity>
      <value value="47.0"/>
      <units value="{beats}/min"/>
      <system value="http://unitsofmeasure.org" />
      <code value="{beats}/min"/>
    </valueQuantity>
    
    <appliesDateTime value="2008-01-16"/>
    <status value="final"/>
    <reliability value="ok"/>
    <subject>
      <reference value="Patient/ID9995679"/>
    </subject>
    <encounter>
      <reference value="Encounter/ID4"/>
    </encounter>
    
  </Observation>
  
  </resource>
  <transaction>
    <method value="PUT"/>
    <url value="Observation/ID4-heartrate"/>
  </transaction>
</entry>
<entry>
  <resource>
    
    
  <Observation>
  <id value="ID4-weight"/>
    <text>
      <status value="generated"/>
      <div xmlns="http://www.w3.org/1999/xhtml">2008-01-16: weight = 89.4 kg</div>
    </text>
    <code>
      <coding>
        <system value="http://loinc.org"/>
        <code value="3141-9"/>
        <display value="weight"/>
      </coding>
    </code>
    <valueQuantity>
      <value value="89.4"/>
      <units value="kg"/>
      <system value="http://unitsofmeasure.org" />
      <code value="kg"/>
    </valueQuantity>
    
    <appliesDateTime value="2008-01-16"/>
    <status value="final"/>
    <reliability value="ok"/>
    <subject>
      <reference value="Patient/ID9995679"/>
    </subject>
    <encounter>
      <reference value="Encounter/ID4"/>
    </encounter>
    
  </Observation>
  
  </resource>
  <transaction>
    <method value="PUT"/>
    <url value="Observation/ID4-weight"/>
  </transaction>
</entry>
<entry>
  <resource>
    
    
  <Observation>
  <id value="ID5-height"/>
    <text>
      <status value="generated"/>
      <div xmlns="http://www.w3.org/1999/xhtml">2008-06-25: height = 197.5 cm</div>
    </text>
    <code>
      <coding>
        <system value="http://loinc.org"/>
        <code value="8302-2"/>
        <display value="height"/>
      </coding>
    </code>
    <valueQuantity>
      <value value="197.5"/>
      <units value="cm"/>
      <system value="http://unitsofmeasure.org" />
      <code value="cm"/>
    </valueQuantity>
    
    <appliesDateTime value="2008-06-25"/>
    <status value="final"/>
    <reliability value="ok"/>
    <subject>
      <reference value="Patient/ID9995679"/>
    </subject>
    <encounter>
      <reference value="Encounter/ID5"/>
    </encounter>
    
  </Observation>
  
  </resource>
  <transaction>
    <method value="PUT"/>
    <url value="Observation/ID5-height"/>
  </transaction>
</entry>
<entry>
  <resource>
    
    
  <Observation>
  <id value="ID5-heartrate"/>
    <text>
      <status value="generated"/>
      <div xmlns="http://www.w3.org/1999/xhtml">2008-06-25: heart_rate = 47.0 {beats}/min</div>
    </text>
    <code>
      <coding>
        <system value="http://loinc.org"/>
        <code value="8867-4"/>
        <display value="heart_rate"/>
      </coding>
    </code>
    <valueQuantity>
      <value value="47.0"/>
      <units value="{beats}/min"/>
      <system value="http://unitsofmeasure.org" />
      <code value="{beats}/min"/>
    </valueQuantity>
    
    <appliesDateTime value="2008-06-25"/>
    <status value="final"/>
    <reliability value="ok"/>
    <subject>
      <reference value="Patient/ID9995679"/>
    </subject>
    <encounter>
      <reference value="Encounter/ID5"/>
    </encounter>
    
  </Observation>
  
  </resource>
  <transaction>
    <method value="PUT"/>
    <url value="Observation/ID5-heartrate"/>
  </transaction>
</entry>
<entry>
  <resource>
    
    
  <Observation>
  <id value="ID5-weight"/>
    <text>
      <status value="generated"/>
      <div xmlns="http://www.w3.org/1999/xhtml">2008-06-25: weight = 90.2 kg</div>
    </text>
    <code>
      <coding>
        <system value="http://loinc.org"/>
        <code value="3141-9"/>
        <display value="weight"/>
      </coding>
    </code>
    <valueQuantity>
      <value value="90.2"/>
      <units value="kg"/>
      <system value="http://unitsofmeasure.org" />
      <code value="kg"/>
    </valueQuantity>
    
    <appliesDateTime value="2008-06-25"/>
    <status value="final"/>
    <reliability value="ok"/>
    <subject>
      <reference value="Patient/ID9995679"/>
    </subject>
    <encounter>
      <reference value="Encounter/ID5"/>
    </encounter>
    
  </Observation>
  
  </resource>
  <transaction>
    <method value="PUT"/>
    <url value="Observation/ID5-weight"/>
  </transaction>
</entry>
<entry>
  <resource>
    
    
  <Observation>
  <id value="ID6-heartrate"/>
    <text>
      <status value="generated"/>
      <div xmlns="http://www.w3.org/1999/xhtml">2008-06-25: heart_rate = 50.0 {beats}/min</div>
    </text>
    <code>
      <coding>
        <system value="http://loinc.org"/>
        <code value="8867-4"/>
        <display value="heart_rate"/>
      </coding>
    </code>
    <valueQuantity>
      <value value="50.0"/>
      <units value="{beats}/min"/>
      <system value="http://unitsofmeasure.org" />
      <code value="{beats}/min"/>
    </valueQuantity>
    
    <appliesDateTime value="2008-06-25"/>
    <status value="final"/>
    <reliability value="ok"/>
    <subject>
      <reference value="Patient/ID9995679"/>
    </subject>
    <encounter>
      <reference value="Encounter/ID5"/>
    </encounter>
    
  </Observation>
  
  </resource>
  <transaction>
    <method value="PUT"/>
    <url value="Observation/ID6-heartrate"/>
  </transaction>
</entry>
<entry>
  <resource>
    
    
  <Observation>
  <id value="ID7-height"/>
    <text>
      <status value="generated"/>
      <div xmlns="http://www.w3.org/1999/xhtml">2009-06-10: height = 198.0 cm</div>
    </text>
    <code>
      <coding>
        <system value="http://loinc.org"/>
        <code value="8302-2"/>
        <display value="height"/>
      </coding>
    </code>
    <valueQuantity>
      <value value="198.0"/>
      <units value="cm"/>
      <system value="http://unitsofmeasure.org" />
      <code value="cm"/>
    </valueQuantity>
    
    <appliesDateTime value="2009-06-10"/>
    <status value="final"/>
    <reliability value="ok"/>
    <subject>
      <reference value="Patient/ID9995679"/>
    </subject>
    <encounter>
      <reference value="Encounter/ID7"/>
    </encounter>
    
  </Observation>
  
  </resource>
  <transaction>
    <method value="PUT"/>
    <url value="Observation/ID7-height"/>
  </transaction>
</entry>
<entry>
  <resource>
    
    
  <Observation>
  <id value="ID7-weight"/>
    <text>
      <status value="generated"/>
      <div xmlns="http://www.w3.org/1999/xhtml">2009-06-10: weight = 94.7 kg</div>
    </text>
    <code>
      <coding>
        <system value="http://loinc.org"/>
        <code value="3141-9"/>
        <display value="weight"/>
      </coding>
    </code>
    <valueQuantity>
      <value value="94.7"/>
      <units value="kg"/>
      <system value="http://unitsofmeasure.org" />
      <code value="kg"/>
    </valueQuantity>
    
    <appliesDateTime value="2009-06-10"/>
    <status value="final"/>
    <reliability value="ok"/>
    <subject>
      <reference value="Patient/ID9995679"/>
    </subject>
    <encounter>
      <reference value="Encounter/ID7"/>
    </encounter>
    
  </Observation>
  
  </resource>
  <transaction>
    <method value="PUT"/>
    <url value="Observation/ID7-weight"/>
  </transaction>
</entry>
<entry>
  <resource>
    
    
  <Observation>
  <id value="ID9-height"/>
    <text>
      <status value="generated"/>
      <div xmlns="http://www.w3.org/1999/xhtml">2009-12-23: height = 197.5 cm</div>
    </text>
    <code>
      <coding>
        <system value="http://loinc.org"/>
        <code value="8302-2"/>
        <display value="height"/>
      </coding>
    </code>
    <valueQuantity>
      <value value="197.5"/>
      <units value="cm"/>
      <system value="http://unitsofmeasure.org" />
      <code value="cm"/>
    </valueQuantity>
    
    <appliesDateTime value="2009-12-23"/>
    <status value="final"/>
    <reliability value="ok"/>
    <subject>
      <reference value="Patient/ID9995679"/>
    </subject>
    <encounter>
      <reference value="Encounter/ID9"/>
    </encounter>
    
  </Observation>
  
  </resource>
  <transaction>
    <method value="PUT"/>
    <url value="Observation/ID9-height"/>
  </transaction>
</entry>
<entry>
  <resource>
    
    
  <Observation>
  <id value="ID9-heartrate"/>
    <text>
      <status value="generated"/>
      <div xmlns="http://www.w3.org/1999/xhtml">2009-12-23: heart_rate = 50.0 {beats}/min</div>
    </text>
    <code>
      <coding>
        <system value="http://loinc.org"/>
        <code value="8867-4"/>
        <display value="heart_rate"/>
      </coding>
    </code>
    <valueQuantity>
      <value value="50.0"/>
      <units value="{beats}/min"/>
      <system value="http://unitsofmeasure.org" />
      <code value="{beats}/min"/>
    </valueQuantity>
    
    <appliesDateTime value="2009-12-23"/>
    <status value="final"/>
    <reliability value="ok"/>
    <subject>
      <reference value="Patient/ID9995679"/>
    </subject>
    <encounter>
      <reference value="Encounter/ID9"/>
    </encounter>
    
  </Observation>
  
  </resource>
  <transaction>
    <method value="PUT"/>
    <url value="Observation/ID9-heartrate"/>
  </transaction>
</entry>
<entry>
  <resource>
    
    
  <Observation>
  <id value="ID9-weight"/>
    <text>
      <status value="generated"/>
      <div xmlns="http://www.w3.org/1999/xhtml">2009-12-23: weight = 92.2 kg</div>
    </text>
    <code>
      <coding>
        <system value="http://loinc.org"/>
        <code value="3141-9"/>
        <display value="weight"/>
      </coding>
    </code>
    <valueQuantity>
      <value value="92.2"/>
      <units value="kg"/>
      <system value="http://unitsofmeasure.org" />
      <code value="kg"/>
    </valueQuantity>
    
    <appliesDateTime value="2009-12-23"/>
    <status value="final"/>
    <reliability value="ok"/>
    <subject>
      <reference value="Patient/ID9995679"/>
    </subject>
    <encounter>
      <reference value="Encounter/ID9"/>
    </encounter>
    
  </Observation>
  
  </resource>
  <transaction>
    <method value="PUT"/>
    <url value="Observation/ID9-weight"/>
  </transaction>
</entry>
<entry>
  <resource>
    
    
  <Observation>
  <id value="ID10-heartrate"/>
    <text>
      <status value="generated"/>
      <div xmlns="http://www.w3.org/1999/xhtml">2009-12-23: heart_rate = 50.0 {beats}/min</div>
    </text>
    <code>
      <coding>
        <system value="http://loinc.org"/>
        <code value="8867-4"/>
        <display value="heart_rate"/>
      </coding>
    </code>
    <valueQuantity>
      <value value="50.0"/>
      <units value="{beats}/min"/>
      <system value="http://unitsofmeasure.org" />
      <code value="{beats}/min"/>
    </valueQuantity>
    
    <appliesDateTime value="2009-12-23"/>
    <status value="final"/>
    <reliability value="ok"/>
    <subject>
      <reference value="Patient/ID9995679"/>
    </subject>
    <encounter>
      <reference value="Encounter/ID9"/>
    </encounter>
    
  </Observation>
  
  </resource>
  <transaction>
    <method value="PUT"/>
    <url value="Observation/ID10-heartrate"/>
  </transaction>
</entry>
<entry>
  <resource>
    
    
  <Observation>
  <id value="ID11-heartrate"/>
    <text>
      <status value="generated"/>
      <div xmlns="http://www.w3.org/1999/xhtml">2009-12-23: heart_rate = 49.0 {beats}/min</div>
    </text>
    <code>
      <coding>
        <system value="http://loinc.org"/>
        <code value="8867-4"/>
        <display value="heart_rate"/>
      </coding>
    </code>
    <valueQuantity>
      <value value="49.0"/>
      <units value="{beats}/min"/>
      <system value="http://unitsofmeasure.org" />
      <code value="{beats}/min"/>
    </valueQuantity>
    
    <appliesDateTime value="2009-12-23"/>
    <status value="final"/>
    <reliability value="ok"/>
    <subject>
      <reference value="Patient/ID9995679"/>
    </subject>
    <encounter>
      <reference value="Encounter/ID9"/>
    </encounter>
    
  </Observation>
  
  </resource>
  <transaction>
    <method value="PUT"/>
    <url value="Observation/ID11-heartrate"/>
  </transaction>
</entry>
<entry>
  <resource>
    
    
  <Observation>
  <id value="ID12-heartrate"/>
    <text>
      <status value="generated"/>
      <div xmlns="http://www.w3.org/1999/xhtml">2009-12-23: heart_rate = 53.0 {beats}/min</div>
    </text>
    <code>
      <coding>
        <system value="http://loinc.org"/>
        <code value="8867-4"/>
        <display value="heart_rate"/>
      </coding>
    </code>
    <valueQuantity>
      <value value="53.0"/>
      <units value="{beats}/min"/>
      <system value="http://unitsofmeasure.org" />
      <code value="{beats}/min"/>
    </valueQuantity>
    
    <appliesDateTime value="2009-12-23"/>
    <status value="final"/>
    <reliability value="ok"/>
    <subject>
      <reference value="Patient/ID9995679"/>
    </subject>
    <encounter>
      <reference value="Encounter/ID9"/>
    </encounter>
    
  </Observation>
  
  </resource>
  <transaction>
    <method value="PUT"/>
    <url value="Observation/ID12-heartrate"/>
  </transaction>
</entry>
<entry>
  <resource>
    
    
  <Observation>
  <id value="ID13-heartrate"/>
    <text>
      <status value="generated"/>
      <div xmlns="http://www.w3.org/1999/xhtml">2009-12-23: heart_rate = 48.0 {beats}/min</div>
    </text>
    <code>
      <coding>
        <system value="http://loinc.org"/>
        <code value="8867-4"/>
        <display value="heart_rate"/>
      </coding>
    </code>
    <valueQuantity>
      <value value="48.0"/>
      <units value="{beats}/min"/>
      <system value="http://unitsofmeasure.org" />
      <code value="{beats}/min"/>
    </valueQuantity>
    
    <appliesDateTime value="2009-12-23"/>
    <status value="final"/>
    <reliability value="ok"/>
    <subject>
      <reference value="Patient/ID9995679"/>
    </subject>
    <encounter>
      <reference value="Encounter/ID9"/>
    </encounter>
    
  </Observation>
  
  </resource>
  <transaction>
    <method value="PUT"/>
    <url value="Observation/ID13-heartrate"/>
  </transaction>
</entry>
<entry>
  <resource>
    
    
  <Observation>
  <id value="ID14-heartrate"/>
    <text>
      <status value="generated"/>
      <div xmlns="http://www.w3.org/1999/xhtml">2009-12-23: heart_rate = 52.0 {beats}/min</div>
    </text>
    <code>
      <coding>
        <system value="http://loinc.org"/>
        <code value="8867-4"/>
        <display value="heart_rate"/>
      </coding>
    </code>
    <valueQuantity>
      <value value="52.0"/>
      <units value="{beats}/min"/>
      <system value="http://unitsofmeasure.org" />
      <code value="{beats}/min"/>
    </valueQuantity>
    
    <appliesDateTime value="2009-12-23"/>
    <status value="final"/>
    <reliability value="ok"/>
    <subject>
      <reference value="Patient/ID9995679"/>
    </subject>
    <encounter>
      <reference value="Encounter/ID9"/>
    </encounter>
    
  </Observation>
  
  </resource>
  <transaction>
    <method value="PUT"/>
    <url value="Observation/ID14-heartrate"/>
  </transaction>
</entry>
<entry>
  <resource>
    
    
  <Observation>
  <id value="ID15-height"/>
    <text>
      <status value="generated"/>
      <div xmlns="http://www.w3.org/1999/xhtml">2010-12-22: height = 197.0 cm</div>
    </text>
    <code>
      <coding>
        <system value="http://loinc.org"/>
        <code value="8302-2"/>
        <display value="height"/>
      </coding>
    </code>
    <valueQuantity>
      <value value="197.0"/>
      <units value="cm"/>
      <system value="http://unitsofmeasure.org" />
      <code value="cm"/>
    </valueQuantity>
    
    <appliesDateTime value="2010-12-22"/>
    <status value="final"/>
    <reliability value="ok"/>
    <subject>
      <reference value="Patient/ID9995679"/>
    </subject>
    <encounter>
      <reference value="Encounter/ID15"/>
    </encounter>
    
  </Observation>
  
  </resource>
  <transaction>
    <method value="PUT"/>
    <url value="Observation/ID15-height"/>
  </transaction>
</entry>
<entry>
  <resource>
    
    
  <Observation>
  <id value="ID15-heartrate"/>
    <text>
      <status value="generated"/>
      <div xmlns="http://www.w3.org/1999/xhtml">2010-12-22: heart_rate = 52.0 {beats}/min</div>
    </text>
    <code>
      <coding>
        <system value="http://loinc.org"/>
        <code value="8867-4"/>
        <display value="heart_rate"/>
      </coding>
    </code>
    <valueQuantity>
      <value value="52.0"/>
      <units value="{beats}/min"/>
      <system value="http://unitsofmeasure.org" />
      <code value="{beats}/min"/>
    </valueQuantity>
    
    <appliesDateTime value="2010-12-22"/>
    <status value="final"/>
    <reliability value="ok"/>
    <subject>
      <reference value="Patient/ID9995679"/>
    </subject>
    <encounter>
      <reference value="Encounter/ID15"/>
    </encounter>
    
  </Observation>
  
  </resource>
  <transaction>
    <method value="PUT"/>
    <url value="Observation/ID15-heartrate"/>
  </transaction>
</entry>
<entry>
  <resource>
    
    
  <Observation>
  <id value="ID15-weight"/>
    <text>
      <status value="generated"/>
      <div xmlns="http://www.w3.org/1999/xhtml">2010-12-22: weight = 92.3 kg</div>
    </text>
    <code>
      <coding>
        <system value="http://loinc.org"/>
        <code value="3141-9"/>
        <display value="weight"/>
      </coding>
    </code>
    <valueQuantity>
      <value value="92.3"/>
      <units value="kg"/>
      <system value="http://unitsofmeasure.org" />
      <code value="kg"/>
    </valueQuantity>
    
    <appliesDateTime value="2010-12-22"/>
    <status value="final"/>
    <reliability value="ok"/>
    <subject>
      <reference value="Patient/ID9995679"/>
    </subject>
    <encounter>
      <reference value="Encounter/ID15"/>
    </encounter>
    
  </Observation>
  
  </resource>
  <transaction>
    <method value="PUT"/>
    <url value="Observation/ID15-weight"/>
  </transaction>
</entry>

</Bundle>
