<?xml version="1.0" encoding="UTF-8"?>
<Bundle xmlns="http://hl7.org/fhir">
    <type value="transaction"/>

  <entry>
  <resource>
    
    
  <Patient>
    <id value="8888804"/>
    <text>
      <status value="generated"/>
      <div xmlns="http://www.w3.org/1999/xhtml">
        <p>George McKay</p>
      </div>
    </text>
    <identifier>
      <use value="usual"/>
      <type>
        <coding>
          <system value="http://hl7.org/fhir/v2/0203"/>
          <code value="MR"/>
          <display value="Medical record number"/>
        </coding>
        <text value="Medical record number"/>
      </type>
      <system value="http://hospital.smarthealthit.org"/>
      <value value="8888804"/>
    </identifier>
    <name>
      <use value="official"/>
      <family value="McKay"/>
      <given value="George"/>
    </name>
    <gender value="male" />
    <birthDate value="1950-07-06" />
    <active value="true"/>
  </Patient>
  
  </resource>
  <request>
    <method value="POST"/>
    <url value="Patient/8888804"/>
  </request>
</entry>
  <entry>
  <resource>
    
    
    <Encounter>
  <id value="961"/>
      <text>
        <status value="generated"/>
        <div xmlns="http://www.w3.org/1999/xhtml">2010-06-04: ambulatory encounter</div>
      </text>
      <status value="finished"/>
      <class value="ambulatory"/>
      <patient>
        <reference value="Patient/8888804"/>
      </patient>
      <period>
       <start value="2010-06-04"/>
       <end value="2010-06-04"/>
      </period>
    </Encounter>
  
  </resource>
  <request>
    <method value="POST"/>
    <url value="Encounter/961"/>
  </request>
</entry>
  <entry>
  <resource>
    
    
    <Encounter>
  <id value="962"/>
      <text>
        <status value="generated"/>
        <div xmlns="http://www.w3.org/1999/xhtml">2011-02-03: ambulatory encounter</div>
      </text>
      <status value="finished"/>
      <class value="ambulatory"/>
      <patient>
        <reference value="Patient/8888804"/>
      </patient>
      <period>
       <start value="2011-02-03"/>
       <end value="2011-02-03"/>
      </period>
    </Encounter>
  
  </resource>
  <request>
    <method value="POST"/>
    <url value="Encounter/962"/>
  </request>
</entry>
  <entry>
  <resource>
    
    
    <Encounter>
  <id value="963"/>
      <text>
        <status value="generated"/>
        <div xmlns="http://www.w3.org/1999/xhtml">2011-07-12: ambulatory encounter</div>
      </text>
      <status value="finished"/>
      <class value="ambulatory"/>
      <patient>
        <reference value="Patient/8888804"/>
      </patient>
      <period>
       <start value="2011-07-12"/>
       <end value="2011-07-12"/>
      </period>
    </Encounter>
  
  </resource>
  <request>
    <method value="POST"/>
    <url value="Encounter/963"/>
  </request>
</entry>
  <entry>
  <resource>
    
    
    <Encounter>
  <id value="964"/>
      <text>
        <status value="generated"/>
        <div xmlns="http://www.w3.org/1999/xhtml">2012-01-17: ambulatory encounter</div>
      </text>
      <status value="finished"/>
      <class value="ambulatory"/>
      <patient>
        <reference value="Patient/8888804"/>
      </patient>
      <period>
       <start value="2012-01-17"/>
       <end value="2012-01-17"/>
      </period>
    </Encounter>
  
  </resource>
  <request>
    <method value="POST"/>
    <url value="Encounter/964"/>
  </request>
</entry>
  <entry>
  <resource>
    
    
    <Encounter>
  <id value="965"/>
      <text>
        <status value="generated"/>
        <div xmlns="http://www.w3.org/1999/xhtml">2012-05-06: ambulatory encounter</div>
      </text>
      <status value="finished"/>
      <class value="ambulatory"/>
      <patient>
        <reference value="Patient/8888804"/>
      </patient>
      <period>
       <start value="2012-05-06"/>
       <end value="2012-05-06"/>
      </period>
    </Encounter>
  
  </resource>
  <request>
    <method value="POST"/>
    <url value="Encounter/965"/>
  </request>
</entry>
  <entry>
  <resource>
    
    
    <Encounter>
  <id value="966"/>
      <text>
        <status value="generated"/>
        <div xmlns="http://www.w3.org/1999/xhtml">2012-11-09: ambulatory encounter</div>
      </text>
      <status value="finished"/>
      <class value="ambulatory"/>
      <patient>
        <reference value="Patient/8888804"/>
      </patient>
      <period>
       <start value="2012-11-09"/>
       <end value="2012-11-09"/>
      </period>
    </Encounter>
  
  </resource>
  <request>
    <method value="POST"/>
    <url value="Encounter/966"/>
  </request>
</entry>
  <entry>
  <resource>
    
    
  <Observation>
    <id value="961-bp"/>
    <text>
      <status value="generated"/>
      <div xmlns="http://www.w3.org/1999/xhtml">2010-06-04: Blood pressure 136/92 mmHg</div>
    </text>
    <code>
      <coding>
        <system value="http://loinc.org"/>
        <code value="55284-4"/>
        <display value="Blood pressure systolic and diastolic"/>
      </coding>
      <text value="Blood pressure systolic and diastolic"/>
    </code>
    <effectiveDateTime value="2010-06-04"/>
    <status value="final"/>
    <subject>
      <reference value="Patient/8888804"/>
    </subject>
    <encounter>
      <reference value="Encounter/961"/>
    </encounter>
    

    <component>
        <code>
            <coding>
                <system value="http://loinc.org"/>
                <code value="8480-6"/>
                <display value="Systolic blood pressure"/>
            </coding>
            <text value="Systolic blood pressure"/>
        </code>
        <valueQuantity>
            <value value="136"/>
            <unit value="mmHg"/>
            <system value="http://unitsofmeasure.org" />
            <code value="mm[Hg]"/>
        </valueQuantity>
    </component>

    <component>
        <code>
            <coding>
                <system value="http://loinc.org"/>
                <code value="8462-4"/>
                <display value="Diastolic blood pressure"/>
            </coding>
            <text value="Diastolic blood pressure"/>
        </code>
        <valueQuantity>
            <value value="92"/>
            <unit value="mmHg"/>
            <system value="http://unitsofmeasure.org" />
            <code value="mm[Hg]"/>
        </valueQuantity>
    </component>

  </Observation>
  
  </resource>
  <request>
    <method value="POST"/>
    <url value="Observation/961-bp"/>
  </request>
</entry>
<entry>
  <resource>
    
    
  <Observation>
  <id value="961-systolic"/>
    <text>
      <status value="generated"/>
      <div xmlns="http://www.w3.org/1999/xhtml">2010-06-04: Systolic blood pressure = 136 mm[Hg]</div>
    </text>
    <code>
      <coding>
        <system value="http://loinc.org"/>
        <code value="8480-6"/>
        <display value="Systolic blood pressure"/>
      </coding>
      <text value="Systolic blood pressure"/>
    </code>
    <valueQuantity>
      <value value="136.0"/>
      <unit value="mm[Hg]"/>
      <system value="http://unitsofmeasure.org" />
      <code value="mm[Hg]"/>
    </valueQuantity>
    
    <effectiveDateTime value="2010-06-04"/>
    <status value="final"/>
    <subject>
      <reference value="Patient/8888804"/>
    </subject>
  </Observation>
  
  </resource>
  <request>
    <method value="POST"/>
    <url value="Observation/961-systolic"/>
  </request>
</entry>
<entry>
  <resource>
    
    
  <Observation>
  <id value="961-diastolic"/>
    <text>
      <status value="generated"/>
      <div xmlns="http://www.w3.org/1999/xhtml">2010-06-04: Diastolic blood pressure = 92 mm[Hg]</div>
    </text>
    <code>
      <coding>
        <system value="http://loinc.org"/>
        <code value="8462-4"/>
        <display value="Diastolic blood pressure"/>
      </coding>
      <text value="Diastolic blood pressure"/>
    </code>
    <valueQuantity>
      <value value="92.0"/>
      <unit value="mm[Hg]"/>
      <system value="http://unitsofmeasure.org" />
      <code value="mm[Hg]"/>
    </valueQuantity>
    
    <effectiveDateTime value="2010-06-04"/>
    <status value="final"/>
    <subject>
      <reference value="Patient/8888804"/>
    </subject>
  </Observation>
  
  </resource>
  <request>
    <method value="POST"/>
    <url value="Observation/961-diastolic"/>
  </request>
</entry>
  <entry>
  <resource>
    
    
  <Observation>
    <id value="962-bp"/>
    <text>
      <status value="generated"/>
      <div xmlns="http://www.w3.org/1999/xhtml">2011-02-03: Blood pressure 126/82 mmHg</div>
    </text>
    <code>
      <coding>
        <system value="http://loinc.org"/>
        <code value="55284-4"/>
        <display value="Blood pressure systolic and diastolic"/>
      </coding>
      <text value="Blood pressure systolic and diastolic"/>
    </code>
    <effectiveDateTime value="2011-02-03"/>
    <status value="final"/>
    <subject>
      <reference value="Patient/8888804"/>
    </subject>
    <encounter>
      <reference value="Encounter/962"/>
    </encounter>
    

    <component>
        <code>
            <coding>
                <system value="http://loinc.org"/>
                <code value="8480-6"/>
                <display value="Systolic blood pressure"/>
            </coding>
            <text value="Systolic blood pressure"/>
        </code>
        <valueQuantity>
            <value value="126"/>
            <unit value="mmHg"/>
            <system value="http://unitsofmeasure.org" />
            <code value="mm[Hg]"/>
        </valueQuantity>
    </component>

    <component>
        <code>
            <coding>
                <system value="http://loinc.org"/>
                <code value="8462-4"/>
                <display value="Diastolic blood pressure"/>
            </coding>
            <text value="Diastolic blood pressure"/>
        </code>
        <valueQuantity>
            <value value="82"/>
            <unit value="mmHg"/>
            <system value="http://unitsofmeasure.org" />
            <code value="mm[Hg]"/>
        </valueQuantity>
    </component>

  </Observation>
  
  </resource>
  <request>
    <method value="POST"/>
    <url value="Observation/962-bp"/>
  </request>
</entry>
<entry>
  <resource>
    
    
  <Observation>
  <id value="962-systolic"/>
    <text>
      <status value="generated"/>
      <div xmlns="http://www.w3.org/1999/xhtml">2011-02-03: Systolic blood pressure = 126 mm[Hg]</div>
    </text>
    <code>
      <coding>
        <system value="http://loinc.org"/>
        <code value="8480-6"/>
        <display value="Systolic blood pressure"/>
      </coding>
      <text value="Systolic blood pressure"/>
    </code>
    <valueQuantity>
      <value value="126.0"/>
      <unit value="mm[Hg]"/>
      <system value="http://unitsofmeasure.org" />
      <code value="mm[Hg]"/>
    </valueQuantity>
    
    <effectiveDateTime value="2011-02-03"/>
    <status value="final"/>
    <subject>
      <reference value="Patient/8888804"/>
    </subject>
  </Observation>
  
  </resource>
  <request>
    <method value="POST"/>
    <url value="Observation/962-systolic"/>
  </request>
</entry>
<entry>
  <resource>
    
    
  <Observation>
  <id value="962-diastolic"/>
    <text>
      <status value="generated"/>
      <div xmlns="http://www.w3.org/1999/xhtml">2011-02-03: Diastolic blood pressure = 82 mm[Hg]</div>
    </text>
    <code>
      <coding>
        <system value="http://loinc.org"/>
        <code value="8462-4"/>
        <display value="Diastolic blood pressure"/>
      </coding>
      <text value="Diastolic blood pressure"/>
    </code>
    <valueQuantity>
      <value value="82.0"/>
      <unit value="mm[Hg]"/>
      <system value="http://unitsofmeasure.org" />
      <code value="mm[Hg]"/>
    </valueQuantity>
    
    <effectiveDateTime value="2011-02-03"/>
    <status value="final"/>
    <subject>
      <reference value="Patient/8888804"/>
    </subject>
  </Observation>
  
  </resource>
  <request>
    <method value="POST"/>
    <url value="Observation/962-diastolic"/>
  </request>
</entry>
  <entry>
  <resource>
    
    
  <Observation>
    <id value="963-bp"/>
    <text>
      <status value="generated"/>
      <div xmlns="http://www.w3.org/1999/xhtml">2011-07-12: Blood pressure 122/80 mmHg</div>
    </text>
    <code>
      <coding>
        <system value="http://loinc.org"/>
        <code value="55284-4"/>
        <display value="Blood pressure systolic and diastolic"/>
      </coding>
      <text value="Blood pressure systolic and diastolic"/>
    </code>
    <effectiveDateTime value="2011-07-12"/>
    <status value="final"/>
    <subject>
      <reference value="Patient/8888804"/>
    </subject>
    <encounter>
      <reference value="Encounter/963"/>
    </encounter>
    

    <component>
        <code>
            <coding>
                <system value="http://loinc.org"/>
                <code value="8480-6"/>
                <display value="Systolic blood pressure"/>
            </coding>
            <text value="Systolic blood pressure"/>
        </code>
        <valueQuantity>
            <value value="122"/>
            <unit value="mmHg"/>
            <system value="http://unitsofmeasure.org" />
            <code value="mm[Hg]"/>
        </valueQuantity>
    </component>

    <component>
        <code>
            <coding>
                <system value="http://loinc.org"/>
                <code value="8462-4"/>
                <display value="Diastolic blood pressure"/>
            </coding>
            <text value="Diastolic blood pressure"/>
        </code>
        <valueQuantity>
            <value value="80"/>
            <unit value="mmHg"/>
            <system value="http://unitsofmeasure.org" />
            <code value="mm[Hg]"/>
        </valueQuantity>
    </component>

  </Observation>
  
  </resource>
  <request>
    <method value="POST"/>
    <url value="Observation/963-bp"/>
  </request>
</entry>
<entry>
  <resource>
    
    
  <Observation>
  <id value="963-systolic"/>
    <text>
      <status value="generated"/>
      <div xmlns="http://www.w3.org/1999/xhtml">2011-07-12: Systolic blood pressure = 122 mm[Hg]</div>
    </text>
    <code>
      <coding>
        <system value="http://loinc.org"/>
        <code value="8480-6"/>
        <display value="Systolic blood pressure"/>
      </coding>
      <text value="Systolic blood pressure"/>
    </code>
    <valueQuantity>
      <value value="122.0"/>
      <unit value="mm[Hg]"/>
      <system value="http://unitsofmeasure.org" />
      <code value="mm[Hg]"/>
    </valueQuantity>
    
    <effectiveDateTime value="2011-07-12"/>
    <status value="final"/>
    <subject>
      <reference value="Patient/8888804"/>
    </subject>
  </Observation>
  
  </resource>
  <request>
    <method value="POST"/>
    <url value="Observation/963-systolic"/>
  </request>
</entry>
<entry>
  <resource>
    
    
  <Observation>
  <id value="963-diastolic"/>
    <text>
      <status value="generated"/>
      <div xmlns="http://www.w3.org/1999/xhtml">2011-07-12: Diastolic blood pressure = 80 mm[Hg]</div>
    </text>
    <code>
      <coding>
        <system value="http://loinc.org"/>
        <code value="8462-4"/>
        <display value="Diastolic blood pressure"/>
      </coding>
      <text value="Diastolic blood pressure"/>
    </code>
    <valueQuantity>
      <value value="80.0"/>
      <unit value="mm[Hg]"/>
      <system value="http://unitsofmeasure.org" />
      <code value="mm[Hg]"/>
    </valueQuantity>
    
    <effectiveDateTime value="2011-07-12"/>
    <status value="final"/>
    <subject>
      <reference value="Patient/8888804"/>
    </subject>
  </Observation>
  
  </resource>
  <request>
    <method value="POST"/>
    <url value="Observation/963-diastolic"/>
  </request>
</entry>
  <entry>
  <resource>
    
    
  <Observation>
    <id value="964-bp"/>
    <text>
      <status value="generated"/>
      <div xmlns="http://www.w3.org/1999/xhtml">2012-01-17: Blood pressure 130/82 mmHg</div>
    </text>
    <code>
      <coding>
        <system value="http://loinc.org"/>
        <code value="55284-4"/>
        <display value="Blood pressure systolic and diastolic"/>
      </coding>
      <text value="Blood pressure systolic and diastolic"/>
    </code>
    <effectiveDateTime value="2012-01-17"/>
    <status value="final"/>
    <subject>
      <reference value="Patient/8888804"/>
    </subject>
    <encounter>
      <reference value="Encounter/964"/>
    </encounter>
    

    <component>
        <code>
            <coding>
                <system value="http://loinc.org"/>
                <code value="8480-6"/>
                <display value="Systolic blood pressure"/>
            </coding>
            <text value="Systolic blood pressure"/>
        </code>
        <valueQuantity>
            <value value="130"/>
            <unit value="mmHg"/>
            <system value="http://unitsofmeasure.org" />
            <code value="mm[Hg]"/>
        </valueQuantity>
    </component>

    <component>
        <code>
            <coding>
                <system value="http://loinc.org"/>
                <code value="8462-4"/>
                <display value="Diastolic blood pressure"/>
            </coding>
            <text value="Diastolic blood pressure"/>
        </code>
        <valueQuantity>
            <value value="82"/>
            <unit value="mmHg"/>
            <system value="http://unitsofmeasure.org" />
            <code value="mm[Hg]"/>
        </valueQuantity>
    </component>

  </Observation>
  
  </resource>
  <request>
    <method value="POST"/>
    <url value="Observation/964-bp"/>
  </request>
</entry>
<entry>
  <resource>
    
    
  <Observation>
  <id value="964-systolic"/>
    <text>
      <status value="generated"/>
      <div xmlns="http://www.w3.org/1999/xhtml">2012-01-17: Systolic blood pressure = 130 mm[Hg]</div>
    </text>
    <code>
      <coding>
        <system value="http://loinc.org"/>
        <code value="8480-6"/>
        <display value="Systolic blood pressure"/>
      </coding>
      <text value="Systolic blood pressure"/>
    </code>
    <valueQuantity>
      <value value="130.0"/>
      <unit value="mm[Hg]"/>
      <system value="http://unitsofmeasure.org" />
      <code value="mm[Hg]"/>
    </valueQuantity>
    
    <effectiveDateTime value="2012-01-17"/>
    <status value="final"/>
    <subject>
      <reference value="Patient/8888804"/>
    </subject>
  </Observation>
  
  </resource>
  <request>
    <method value="POST"/>
    <url value="Observation/964-systolic"/>
  </request>
</entry>
<entry>
  <resource>
    
    
  <Observation>
  <id value="964-diastolic"/>
    <text>
      <status value="generated"/>
      <div xmlns="http://www.w3.org/1999/xhtml">2012-01-17: Diastolic blood pressure = 82 mm[Hg]</div>
    </text>
    <code>
      <coding>
        <system value="http://loinc.org"/>
        <code value="8462-4"/>
        <display value="Diastolic blood pressure"/>
      </coding>
      <text value="Diastolic blood pressure"/>
    </code>
    <valueQuantity>
      <value value="82.0"/>
      <unit value="mm[Hg]"/>
      <system value="http://unitsofmeasure.org" />
      <code value="mm[Hg]"/>
    </valueQuantity>
    
    <effectiveDateTime value="2012-01-17"/>
    <status value="final"/>
    <subject>
      <reference value="Patient/8888804"/>
    </subject>
  </Observation>
  
  </resource>
  <request>
    <method value="POST"/>
    <url value="Observation/964-diastolic"/>
  </request>
</entry>
  <entry>
  <resource>
    
    
  <Observation>
    <id value="965-bp"/>
    <text>
      <status value="generated"/>
      <div xmlns="http://www.w3.org/1999/xhtml">2012-05-06: Blood pressure 132/80 mmHg</div>
    </text>
    <code>
      <coding>
        <system value="http://loinc.org"/>
        <code value="55284-4"/>
        <display value="Blood pressure systolic and diastolic"/>
      </coding>
      <text value="Blood pressure systolic and diastolic"/>
    </code>
    <effectiveDateTime value="2012-05-06"/>
    <status value="final"/>
    <subject>
      <reference value="Patient/8888804"/>
    </subject>
    <encounter>
      <reference value="Encounter/965"/>
    </encounter>
    

    <component>
        <code>
            <coding>
                <system value="http://loinc.org"/>
                <code value="8480-6"/>
                <display value="Systolic blood pressure"/>
            </coding>
            <text value="Systolic blood pressure"/>
        </code>
        <valueQuantity>
            <value value="132"/>
            <unit value="mmHg"/>
            <system value="http://unitsofmeasure.org" />
            <code value="mm[Hg]"/>
        </valueQuantity>
    </component>

    <component>
        <code>
            <coding>
                <system value="http://loinc.org"/>
                <code value="8462-4"/>
                <display value="Diastolic blood pressure"/>
            </coding>
            <text value="Diastolic blood pressure"/>
        </code>
        <valueQuantity>
            <value value="80"/>
            <unit value="mmHg"/>
            <system value="http://unitsofmeasure.org" />
            <code value="mm[Hg]"/>
        </valueQuantity>
    </component>

  </Observation>
  
  </resource>
  <request>
    <method value="POST"/>
    <url value="Observation/965-bp"/>
  </request>
</entry>
<entry>
  <resource>
    
    
  <Observation>
  <id value="965-systolic"/>
    <text>
      <status value="generated"/>
      <div xmlns="http://www.w3.org/1999/xhtml">2012-05-06: Systolic blood pressure = 132 mm[Hg]</div>
    </text>
    <code>
      <coding>
        <system value="http://loinc.org"/>
        <code value="8480-6"/>
        <display value="Systolic blood pressure"/>
      </coding>
      <text value="Systolic blood pressure"/>
    </code>
    <valueQuantity>
      <value value="132.0"/>
      <unit value="mm[Hg]"/>
      <system value="http://unitsofmeasure.org" />
      <code value="mm[Hg]"/>
    </valueQuantity>
    
    <effectiveDateTime value="2012-05-06"/>
    <status value="final"/>
    <subject>
      <reference value="Patient/8888804"/>
    </subject>
  </Observation>
  
  </resource>
  <request>
    <method value="POST"/>
    <url value="Observation/965-systolic"/>
  </request>
</entry>
<entry>
  <resource>
    
    
  <Observation>
  <id value="965-diastolic"/>
    <text>
      <status value="generated"/>
      <div xmlns="http://www.w3.org/1999/xhtml">2012-05-06: Diastolic blood pressure = 80 mm[Hg]</div>
    </text>
    <code>
      <coding>
        <system value="http://loinc.org"/>
        <code value="8462-4"/>
        <display value="Diastolic blood pressure"/>
      </coding>
      <text value="Diastolic blood pressure"/>
    </code>
    <valueQuantity>
      <value value="80.0"/>
      <unit value="mm[Hg]"/>
      <system value="http://unitsofmeasure.org" />
      <code value="mm[Hg]"/>
    </valueQuantity>
    
    <effectiveDateTime value="2012-05-06"/>
    <status value="final"/>
    <subject>
      <reference value="Patient/8888804"/>
    </subject>
  </Observation>
  
  </resource>
  <request>
    <method value="POST"/>
    <url value="Observation/965-diastolic"/>
  </request>
</entry>
  <entry>
  <resource>
    
    
  <Observation>
    <id value="966-bp"/>
    <text>
      <status value="generated"/>
      <div xmlns="http://www.w3.org/1999/xhtml">2012-11-09: Blood pressure 130/84 mmHg</div>
    </text>
    <code>
      <coding>
        <system value="http://loinc.org"/>
        <code value="55284-4"/>
        <display value="Blood pressure systolic and diastolic"/>
      </coding>
      <text value="Blood pressure systolic and diastolic"/>
    </code>
    <effectiveDateTime value="2012-11-09"/>
    <status value="final"/>
    <subject>
      <reference value="Patient/8888804"/>
    </subject>
    <encounter>
      <reference value="Encounter/966"/>
    </encounter>
    

    <component>
        <code>
            <coding>
                <system value="http://loinc.org"/>
                <code value="8480-6"/>
                <display value="Systolic blood pressure"/>
            </coding>
            <text value="Systolic blood pressure"/>
        </code>
        <valueQuantity>
            <value value="130"/>
            <unit value="mmHg"/>
            <system value="http://unitsofmeasure.org" />
            <code value="mm[Hg]"/>
        </valueQuantity>
    </component>

    <component>
        <code>
            <coding>
                <system value="http://loinc.org"/>
                <code value="8462-4"/>
                <display value="Diastolic blood pressure"/>
            </coding>
            <text value="Diastolic blood pressure"/>
        </code>
        <valueQuantity>
            <value value="84"/>
            <unit value="mmHg"/>
            <system value="http://unitsofmeasure.org" />
            <code value="mm[Hg]"/>
        </valueQuantity>
    </component>

  </Observation>
  
  </resource>
  <request>
    <method value="POST"/>
    <url value="Observation/966-bp"/>
  </request>
</entry>
<entry>
  <resource>
    
    
  <Observation>
  <id value="966-systolic"/>
    <text>
      <status value="generated"/>
      <div xmlns="http://www.w3.org/1999/xhtml">2012-11-09: Systolic blood pressure = 130 mm[Hg]</div>
    </text>
    <code>
      <coding>
        <system value="http://loinc.org"/>
        <code value="8480-6"/>
        <display value="Systolic blood pressure"/>
      </coding>
      <text value="Systolic blood pressure"/>
    </code>
    <valueQuantity>
      <value value="130.0"/>
      <unit value="mm[Hg]"/>
      <system value="http://unitsofmeasure.org" />
      <code value="mm[Hg]"/>
    </valueQuantity>
    
    <effectiveDateTime value="2012-11-09"/>
    <status value="final"/>
    <subject>
      <reference value="Patient/8888804"/>
    </subject>
  </Observation>
  
  </resource>
  <request>
    <method value="POST"/>
    <url value="Observation/966-systolic"/>
  </request>
</entry>
<entry>
  <resource>
    
    
  <Observation>
  <id value="966-diastolic"/>
    <text>
      <status value="generated"/>
      <div xmlns="http://www.w3.org/1999/xhtml">2012-11-09: Diastolic blood pressure = 84 mm[Hg]</div>
    </text>
    <code>
      <coding>
        <system value="http://loinc.org"/>
        <code value="8462-4"/>
        <display value="Diastolic blood pressure"/>
      </coding>
      <text value="Diastolic blood pressure"/>
    </code>
    <valueQuantity>
      <value value="84.0"/>
      <unit value="mm[Hg]"/>
      <system value="http://unitsofmeasure.org" />
      <code value="mm[Hg]"/>
    </valueQuantity>
    
    <effectiveDateTime value="2012-11-09"/>
    <status value="final"/>
    <subject>
      <reference value="Patient/8888804"/>
    </subject>
  </Observation>
  
  </resource>
  <request>
    <method value="POST"/>
    <url value="Observation/966-diastolic"/>
  </request>
</entry>
<entry>
  <resource>
    
    
  <Observation>
  <id value="961-height"/>
    <text>
      <status value="generated"/>
      <div xmlns="http://www.w3.org/1999/xhtml">2010-06-04: height = 178.0 cm</div>
    </text>
    <code>
      <coding>
        <system value="http://loinc.org"/>
        <code value="8302-2"/>
        <display value="height"/>
      </coding>
      <text value="height"/>
    </code>
    <valueQuantity>
      <value value="178.0"/>
      <unit value="cm"/>
      <system value="http://unitsofmeasure.org" />
      <code value="cm"/>
    </valueQuantity>
    
    <effectiveDateTime value="2010-06-04"/>
    <status value="final"/>
    <subject>
      <reference value="Patient/8888804"/>
    </subject>
    <encounter>
      <reference value="Encounter/961"/>
    </encounter>
    
  </Observation>
  
  </resource>
  <request>
    <method value="POST"/>
    <url value="Observation/961-height"/>
  </request>
</entry>
<entry>
  <resource>
    
    
  <Observation>
  <id value="961-weight"/>
    <text>
      <status value="generated"/>
      <div xmlns="http://www.w3.org/1999/xhtml">2010-06-04: weight = 99.8 kg</div>
    </text>
    <code>
      <coding>
        <system value="http://loinc.org"/>
        <code value="3141-9"/>
        <display value="weight"/>
      </coding>
      <text value="weight"/>
    </code>
    <valueQuantity>
      <value value="99.8"/>
      <unit value="kg"/>
      <system value="http://unitsofmeasure.org" />
      <code value="kg"/>
    </valueQuantity>
    
    <effectiveDateTime value="2010-06-04"/>
    <status value="final"/>
    <subject>
      <reference value="Patient/8888804"/>
    </subject>
    <encounter>
      <reference value="Encounter/961"/>
    </encounter>
    
  </Observation>
  
  </resource>
  <request>
    <method value="POST"/>
    <url value="Observation/961-weight"/>
  </request>
</entry>
<entry>
  <resource>
    
    
  <Observation>
  <id value="961-bmi"/>
    <text>
      <status value="generated"/>
      <div xmlns="http://www.w3.org/1999/xhtml">2010-06-04: bmi = 31.6 kg/m2</div>
    </text>
    <code>
      <coding>
        <system value="http://loinc.org"/>
        <code value="39156-5"/>
        <display value="bmi"/>
      </coding>
      <text value="bmi"/>
    </code>
    <valueQuantity>
      <value value="31.6"/>
      <unit value="kg/m2"/>
      <system value="http://unitsofmeasure.org" />
      <code value="kg/m2"/>
    </valueQuantity>
    
    <effectiveDateTime value="2010-06-04"/>
    <status value="final"/>
    <subject>
      <reference value="Patient/8888804"/>
    </subject>
    <encounter>
      <reference value="Encounter/961"/>
    </encounter>
    
  </Observation>
  
  </resource>
  <request>
    <method value="POST"/>
    <url value="Observation/961-bmi"/>
  </request>
</entry>
<entry>
  <resource>
    
    
  <Observation>
  <id value="962-height"/>
    <text>
      <status value="generated"/>
      <div xmlns="http://www.w3.org/1999/xhtml">2011-02-03: height = 178.0 cm</div>
    </text>
    <code>
      <coding>
        <system value="http://loinc.org"/>
        <code value="8302-2"/>
        <display value="height"/>
      </coding>
      <text value="height"/>
    </code>
    <valueQuantity>
      <value value="178.0"/>
      <unit value="cm"/>
      <system value="http://unitsofmeasure.org" />
      <code value="cm"/>
    </valueQuantity>
    
    <effectiveDateTime value="2011-02-03"/>
    <status value="final"/>
    <subject>
      <reference value="Patient/8888804"/>
    </subject>
    <encounter>
      <reference value="Encounter/962"/>
    </encounter>
    
  </Observation>
  
  </resource>
  <request>
    <method value="POST"/>
    <url value="Observation/962-height"/>
  </request>
</entry>
<entry>
  <resource>
    
    
  <Observation>
  <id value="962-weight"/>
    <text>
      <status value="generated"/>
      <div xmlns="http://www.w3.org/1999/xhtml">2011-02-03: weight = 95.3 kg</div>
    </text>
    <code>
      <coding>
        <system value="http://loinc.org"/>
        <code value="3141-9"/>
        <display value="weight"/>
      </coding>
      <text value="weight"/>
    </code>
    <valueQuantity>
      <value value="95.3"/>
      <unit value="kg"/>
      <system value="http://unitsofmeasure.org" />
      <code value="kg"/>
    </valueQuantity>
    
    <effectiveDateTime value="2011-02-03"/>
    <status value="final"/>
    <subject>
      <reference value="Patient/8888804"/>
    </subject>
    <encounter>
      <reference value="Encounter/962"/>
    </encounter>
    
  </Observation>
  
  </resource>
  <request>
    <method value="POST"/>
    <url value="Observation/962-weight"/>
  </request>
</entry>
<entry>
  <resource>
    
    
  <Observation>
  <id value="962-bmi"/>
    <text>
      <status value="generated"/>
      <div xmlns="http://www.w3.org/1999/xhtml">2011-02-03: bmi = 30.1 kg/m2</div>
    </text>
    <code>
      <coding>
        <system value="http://loinc.org"/>
        <code value="39156-5"/>
        <display value="bmi"/>
      </coding>
      <text value="bmi"/>
    </code>
    <valueQuantity>
      <value value="30.1"/>
      <unit value="kg/m2"/>
      <system value="http://unitsofmeasure.org" />
      <code value="kg/m2"/>
    </valueQuantity>
    
    <effectiveDateTime value="2011-02-03"/>
    <status value="final"/>
    <subject>
      <reference value="Patient/8888804"/>
    </subject>
    <encounter>
      <reference value="Encounter/962"/>
    </encounter>
    
  </Observation>
  
  </resource>
  <request>
    <method value="POST"/>
    <url value="Observation/962-bmi"/>
  </request>
</entry>
<entry>
  <resource>
    
    
  <Observation>
  <id value="963-height"/>
    <text>
      <status value="generated"/>
      <div xmlns="http://www.w3.org/1999/xhtml">2011-07-12: height = 178.0 cm</div>
    </text>
    <code>
      <coding>
        <system value="http://loinc.org"/>
        <code value="8302-2"/>
        <display value="height"/>
      </coding>
      <text value="height"/>
    </code>
    <valueQuantity>
      <value value="178.0"/>
      <unit value="cm"/>
      <system value="http://unitsofmeasure.org" />
      <code value="cm"/>
    </valueQuantity>
    
    <effectiveDateTime value="2011-07-12"/>
    <status value="final"/>
    <subject>
      <reference value="Patient/8888804"/>
    </subject>
    <encounter>
      <reference value="Encounter/963"/>
    </encounter>
    
  </Observation>
  
  </resource>
  <request>
    <method value="POST"/>
    <url value="Observation/963-height"/>
  </request>
</entry>
<entry>
  <resource>
    
    
  <Observation>
  <id value="963-weight"/>
    <text>
      <status value="generated"/>
      <div xmlns="http://www.w3.org/1999/xhtml">2011-07-12: weight = 93.9 kg</div>
    </text>
    <code>
      <coding>
        <system value="http://loinc.org"/>
        <code value="3141-9"/>
        <display value="weight"/>
      </coding>
      <text value="weight"/>
    </code>
    <valueQuantity>
      <value value="93.9"/>
      <unit value="kg"/>
      <system value="http://unitsofmeasure.org" />
      <code value="kg"/>
    </valueQuantity>
    
    <effectiveDateTime value="2011-07-12"/>
    <status value="final"/>
    <subject>
      <reference value="Patient/8888804"/>
    </subject>
    <encounter>
      <reference value="Encounter/963"/>
    </encounter>
    
  </Observation>
  
  </resource>
  <request>
    <method value="POST"/>
    <url value="Observation/963-weight"/>
  </request>
</entry>
<entry>
  <resource>
    
    
  <Observation>
  <id value="963-bmi"/>
    <text>
      <status value="generated"/>
      <div xmlns="http://www.w3.org/1999/xhtml">2011-07-12: bmi = 29.7 kg/m2</div>
    </text>
    <code>
      <coding>
        <system value="http://loinc.org"/>
        <code value="39156-5"/>
        <display value="bmi"/>
      </coding>
      <text value="bmi"/>
    </code>
    <valueQuantity>
      <value value="29.7"/>
      <unit value="kg/m2"/>
      <system value="http://unitsofmeasure.org" />
      <code value="kg/m2"/>
    </valueQuantity>
    
    <effectiveDateTime value="2011-07-12"/>
    <status value="final"/>
    <subject>
      <reference value="Patient/8888804"/>
    </subject>
    <encounter>
      <reference value="Encounter/963"/>
    </encounter>
    
  </Observation>
  
  </resource>
  <request>
    <method value="POST"/>
    <url value="Observation/963-bmi"/>
  </request>
</entry>
<entry>
  <resource>
    
    
  <Observation>
  <id value="964-height"/>
    <text>
      <status value="generated"/>
      <div xmlns="http://www.w3.org/1999/xhtml">2012-01-17: height = 178.0 cm</div>
    </text>
    <code>
      <coding>
        <system value="http://loinc.org"/>
        <code value="8302-2"/>
        <display value="height"/>
      </coding>
      <text value="height"/>
    </code>
    <valueQuantity>
      <value value="178.0"/>
      <unit value="cm"/>
      <system value="http://unitsofmeasure.org" />
      <code value="cm"/>
    </valueQuantity>
    
    <effectiveDateTime value="2012-01-17"/>
    <status value="final"/>
    <subject>
      <reference value="Patient/8888804"/>
    </subject>
    <encounter>
      <reference value="Encounter/964"/>
    </encounter>
    
  </Observation>
  
  </resource>
  <request>
    <method value="POST"/>
    <url value="Observation/964-height"/>
  </request>
</entry>
<entry>
  <resource>
    
    
  <Observation>
  <id value="964-weight"/>
    <text>
      <status value="generated"/>
      <div xmlns="http://www.w3.org/1999/xhtml">2012-01-17: weight = 90.7 kg</div>
    </text>
    <code>
      <coding>
        <system value="http://loinc.org"/>
        <code value="3141-9"/>
        <display value="weight"/>
      </coding>
      <text value="weight"/>
    </code>
    <valueQuantity>
      <value value="90.7"/>
      <unit value="kg"/>
      <system value="http://unitsofmeasure.org" />
      <code value="kg"/>
    </valueQuantity>
    
    <effectiveDateTime value="2012-01-17"/>
    <status value="final"/>
    <subject>
      <reference value="Patient/8888804"/>
    </subject>
    <encounter>
      <reference value="Encounter/964"/>
    </encounter>
    
  </Observation>
  
  </resource>
  <request>
    <method value="POST"/>
    <url value="Observation/964-weight"/>
  </request>
</entry>
<entry>
  <resource>
    
    
  <Observation>
  <id value="964-bmi"/>
    <text>
      <status value="generated"/>
      <div xmlns="http://www.w3.org/1999/xhtml">2012-01-17: bmi = 28.7 kg/m2</div>
    </text>
    <code>
      <coding>
        <system value="http://loinc.org"/>
        <code value="39156-5"/>
        <display value="bmi"/>
      </coding>
      <text value="bmi"/>
    </code>
    <valueQuantity>
      <value value="28.7"/>
      <unit value="kg/m2"/>
      <system value="http://unitsofmeasure.org" />
      <code value="kg/m2"/>
    </valueQuantity>
    
    <effectiveDateTime value="2012-01-17"/>
    <status value="final"/>
    <subject>
      <reference value="Patient/8888804"/>
    </subject>
    <encounter>
      <reference value="Encounter/964"/>
    </encounter>
    
  </Observation>
  
  </resource>
  <request>
    <method value="POST"/>
    <url value="Observation/964-bmi"/>
  </request>
</entry>
<entry>
  <resource>
    
    
  <Observation>
  <id value="965-height"/>
    <text>
      <status value="generated"/>
      <div xmlns="http://www.w3.org/1999/xhtml">2012-05-06: height = 178.0 cm</div>
    </text>
    <code>
      <coding>
        <system value="http://loinc.org"/>
        <code value="8302-2"/>
        <display value="height"/>
      </coding>
      <text value="height"/>
    </code>
    <valueQuantity>
      <value value="178.0"/>
      <unit value="cm"/>
      <system value="http://unitsofmeasure.org" />
      <code value="cm"/>
    </valueQuantity>
    
    <effectiveDateTime value="2012-05-06"/>
    <status value="final"/>
    <subject>
      <reference value="Patient/8888804"/>
    </subject>
    <encounter>
      <reference value="Encounter/965"/>
    </encounter>
    
  </Observation>
  
  </resource>
  <request>
    <method value="POST"/>
    <url value="Observation/965-height"/>
  </request>
</entry>
<entry>
  <resource>
    
    
  <Observation>
  <id value="965-weight"/>
    <text>
      <status value="generated"/>
      <div xmlns="http://www.w3.org/1999/xhtml">2012-05-06: weight = 88.5 kg</div>
    </text>
    <code>
      <coding>
        <system value="http://loinc.org"/>
        <code value="3141-9"/>
        <display value="weight"/>
      </coding>
      <text value="weight"/>
    </code>
    <valueQuantity>
      <value value="88.5"/>
      <unit value="kg"/>
      <system value="http://unitsofmeasure.org" />
      <code value="kg"/>
    </valueQuantity>
    
    <effectiveDateTime value="2012-05-06"/>
    <status value="final"/>
    <subject>
      <reference value="Patient/8888804"/>
    </subject>
    <encounter>
      <reference value="Encounter/965"/>
    </encounter>
    
  </Observation>
  
  </resource>
  <request>
    <method value="POST"/>
    <url value="Observation/965-weight"/>
  </request>
</entry>
<entry>
  <resource>
    
    
  <Observation>
  <id value="965-bmi"/>
    <text>
      <status value="generated"/>
      <div xmlns="http://www.w3.org/1999/xhtml">2012-05-06: bmi = 28.0 kg/m2</div>
    </text>
    <code>
      <coding>
        <system value="http://loinc.org"/>
        <code value="39156-5"/>
        <display value="bmi"/>
      </coding>
      <text value="bmi"/>
    </code>
    <valueQuantity>
      <value value="28.0"/>
      <unit value="kg/m2"/>
      <system value="http://unitsofmeasure.org" />
      <code value="kg/m2"/>
    </valueQuantity>
    
    <effectiveDateTime value="2012-05-06"/>
    <status value="final"/>
    <subject>
      <reference value="Patient/8888804"/>
    </subject>
    <encounter>
      <reference value="Encounter/965"/>
    </encounter>
    
  </Observation>
  
  </resource>
  <request>
    <method value="POST"/>
    <url value="Observation/965-bmi"/>
  </request>
</entry>
<entry>
  <resource>
    
    
  <Observation>
  <id value="966-height"/>
    <text>
      <status value="generated"/>
      <div xmlns="http://www.w3.org/1999/xhtml">2012-11-09: height = 178.0 cm</div>
    </text>
    <code>
      <coding>
        <system value="http://loinc.org"/>
        <code value="8302-2"/>
        <display value="height"/>
      </coding>
      <text value="height"/>
    </code>
    <valueQuantity>
      <value value="178.0"/>
      <unit value="cm"/>
      <system value="http://unitsofmeasure.org" />
      <code value="cm"/>
    </valueQuantity>
    
    <effectiveDateTime value="2012-11-09"/>
    <status value="final"/>
    <subject>
      <reference value="Patient/8888804"/>
    </subject>
    <encounter>
      <reference value="Encounter/966"/>
    </encounter>
    
  </Observation>
  
  </resource>
  <request>
    <method value="POST"/>
    <url value="Observation/966-height"/>
  </request>
</entry>
<entry>
  <resource>
    
    
  <Observation>
  <id value="966-weight"/>
    <text>
      <status value="generated"/>
      <div xmlns="http://www.w3.org/1999/xhtml">2012-11-09: weight = 88.5 kg</div>
    </text>
    <code>
      <coding>
        <system value="http://loinc.org"/>
        <code value="3141-9"/>
        <display value="weight"/>
      </coding>
      <text value="weight"/>
    </code>
    <valueQuantity>
      <value value="88.5"/>
      <unit value="kg"/>
      <system value="http://unitsofmeasure.org" />
      <code value="kg"/>
    </valueQuantity>
    
    <effectiveDateTime value="2012-11-09"/>
    <status value="final"/>
    <subject>
      <reference value="Patient/8888804"/>
    </subject>
    <encounter>
      <reference value="Encounter/966"/>
    </encounter>
    
  </Observation>
  
  </resource>
  <request>
    <method value="POST"/>
    <url value="Observation/966-weight"/>
  </request>
</entry>
<entry>
  <resource>
    
    
  <Observation>
  <id value="966-bmi"/>
    <text>
      <status value="generated"/>
      <div xmlns="http://www.w3.org/1999/xhtml">2012-11-09: bmi = 28.0 kg/m2</div>
    </text>
    <code>
      <coding>
        <system value="http://loinc.org"/>
        <code value="39156-5"/>
        <display value="bmi"/>
      </coding>
      <text value="bmi"/>
    </code>
    <valueQuantity>
      <value value="28.0"/>
      <unit value="kg/m2"/>
      <system value="http://unitsofmeasure.org" />
      <code value="kg/m2"/>
    </valueQuantity>
    
    <effectiveDateTime value="2012-11-09"/>
    <status value="final"/>
    <subject>
      <reference value="Patient/8888804"/>
    </subject>
    <encounter>
      <reference value="Encounter/966"/>
    </encounter>
    
  </Observation>
  
  </resource>
  <request>
    <method value="POST"/>
    <url value="Observation/966-bmi"/>
  </request>
</entry>
<entry>
  <resource>
    
    
  <Observation>
  <id value="3294-lab"/>
    <text>
      <status value="generated"/>
      <div xmlns="http://www.w3.org/1999/xhtml">2011-02-03: Hct VFr Bld Auto = 46.9 %</div>
    </text>
    <code>
      <coding>
        <system value="http://loinc.org"/>
        <code value="4544-3"/>
        <display value="Hct VFr Bld Auto"/>
      </coding>
      <text value="Hct VFr Bld Auto"/>
    </code>
    <valueQuantity>
      <value value="46.9"/>
      <unit value="%"/>
      <system value="http://unitsofmeasure.org" />
      <code value=""/>
    </valueQuantity>
    
    <effectiveDateTime value="2011-02-03"/>
    <status value="final"/>
    <subject>
      <reference value="Patient/8888804"/>
    </subject>
  </Observation>
  
  </resource>
  <request>
    <method value="POST"/>
    <url value="Observation/3294-lab"/>
  </request>
</entry>
<entry>
  <resource>
    
    
  <Observation>
  <id value="3295-lab"/>
    <text>
      <status value="generated"/>
      <div xmlns="http://www.w3.org/1999/xhtml">2011-02-03: RBC # Bld Auto = 4.18 10*6/uL</div>
    </text>
    <code>
      <coding>
        <system value="http://loinc.org"/>
        <code value="789-8"/>
        <display value="RBC # Bld Auto"/>
      </coding>
      <text value="RBC # Bld Auto"/>
    </code>
    <valueQuantity>
      <value value="4.18"/>
      <unit value="10*6/uL"/>
      <system value="http://unitsofmeasure.org" />
      <code value=""/>
    </valueQuantity>
    
    <effectiveDateTime value="2011-02-03"/>
    <status value="final"/>
    <subject>
      <reference value="Patient/8888804"/>
    </subject>
  </Observation>
  
  </resource>
  <request>
    <method value="POST"/>
    <url value="Observation/3295-lab"/>
  </request>
</entry>
<entry>
  <resource>
    
    
  <Observation>
  <id value="3296-lab"/>
    <text>
      <status value="generated"/>
      <div xmlns="http://www.w3.org/1999/xhtml">2011-02-03: MCV RBC = 88 fL</div>
    </text>
    <code>
      <coding>
        <system value="http://loinc.org"/>
        <code value="30428-7"/>
        <display value="MCV RBC"/>
      </coding>
      <text value="MCV RBC"/>
    </code>
    <valueQuantity>
      <value value="88.0"/>
      <unit value="fL"/>
      <system value="http://unitsofmeasure.org" />
      <code value=""/>
    </valueQuantity>
    
    <effectiveDateTime value="2011-02-03"/>
    <status value="final"/>
    <subject>
      <reference value="Patient/8888804"/>
    </subject>
  </Observation>
  
  </resource>
  <request>
    <method value="POST"/>
    <url value="Observation/3296-lab"/>
  </request>
</entry>
<entry>
  <resource>
    
    
  <Observation>
  <id value="3297-lab"/>
    <text>
      <status value="generated"/>
      <div xmlns="http://www.w3.org/1999/xhtml">2011-02-03: MCH RBC Qn Auto = 28 pg</div>
    </text>
    <code>
      <coding>
        <system value="http://loinc.org"/>
        <code value="785-6"/>
        <display value="MCH RBC Qn Auto"/>
      </coding>
      <text value="MCH RBC Qn Auto"/>
    </code>
    <valueQuantity>
      <value value="28.0"/>
      <unit value="pg"/>
      <system value="http://unitsofmeasure.org" />
      <code value=""/>
    </valueQuantity>
    
    <effectiveDateTime value="2011-02-03"/>
    <status value="final"/>
    <subject>
      <reference value="Patient/8888804"/>
    </subject>
  </Observation>
  
  </resource>
  <request>
    <method value="POST"/>
    <url value="Observation/3297-lab"/>
  </request>
</entry>
<entry>
  <resource>
    
    
  <Observation>
  <id value="3298-lab"/>
    <text>
      <status value="generated"/>
      <div xmlns="http://www.w3.org/1999/xhtml">2011-02-03: MCHC RBC Auto-mCnc = 30 g/dL</div>
    </text>
    <code>
      <coding>
        <system value="http://loinc.org"/>
        <code value="786-4"/>
        <display value="MCHC RBC Auto-mCnc"/>
      </coding>
      <text value="MCHC RBC Auto-mCnc"/>
    </code>
    <valueQuantity>
      <value value="30.0"/>
      <unit value="g/dL"/>
      <system value="http://unitsofmeasure.org" />
      <code value=""/>
    </valueQuantity>
    
    <effectiveDateTime value="2011-02-03"/>
    <status value="final"/>
    <subject>
      <reference value="Patient/8888804"/>
    </subject>
  </Observation>
  
  </resource>
  <request>
    <method value="POST"/>
    <url value="Observation/3298-lab"/>
  </request>
</entry>
<entry>
  <resource>
    
    
  <Observation>
  <id value="3299-lab"/>
    <text>
      <status value="generated"/>
      <div xmlns="http://www.w3.org/1999/xhtml">2011-02-03: RDW RBC-Rto = 14.6 %</div>
    </text>
    <code>
      <coding>
        <system value="http://loinc.org"/>
        <code value="30385-9"/>
        <display value="RDW RBC-Rto"/>
      </coding>
      <text value="RDW RBC-Rto"/>
    </code>
    <valueQuantity>
      <value value="14.6"/>
      <unit value="%"/>
      <system value="http://unitsofmeasure.org" />
      <code value=""/>
    </valueQuantity>
    
    <effectiveDateTime value="2011-02-03"/>
    <status value="final"/>
    <subject>
      <reference value="Patient/8888804"/>
    </subject>
  </Observation>
  
  </resource>
  <request>
    <method value="POST"/>
    <url value="Observation/3299-lab"/>
  </request>
</entry>
<entry>
  <resource>
    
    
  <Observation>
  <id value="3300-lab"/>
    <text>
      <status value="generated"/>
      <div xmlns="http://www.w3.org/1999/xhtml">2011-02-03: WBC # Bld = 7.1 10*3/uL</div>
    </text>
    <code>
      <coding>
        <system value="http://loinc.org"/>
        <code value="26464-8"/>
        <display value="WBC # Bld"/>
      </coding>
      <text value="WBC # Bld"/>
    </code>
    <valueQuantity>
      <value value="7.1"/>
      <unit value="10*3/uL"/>
      <system value="http://unitsofmeasure.org" />
      <code value=""/>
    </valueQuantity>
    
    <effectiveDateTime value="2011-02-03"/>
    <status value="final"/>
    <subject>
      <reference value="Patient/8888804"/>
    </subject>
  </Observation>
  
  </resource>
  <request>
    <method value="POST"/>
    <url value="Observation/3300-lab"/>
  </request>
</entry>
<entry>
  <resource>
    
    
  <Observation>
  <id value="3301-lab"/>
    <text>
      <status value="generated"/>
      <div xmlns="http://www.w3.org/1999/xhtml">2011-02-03: Neutrophils NFr Bld Auto = 54 %</div>
    </text>
    <code>
      <coding>
        <system value="http://loinc.org"/>
        <code value="770-8"/>
        <display value="Neutrophils NFr Bld Auto"/>
      </coding>
      <text value="Neutrophils NFr Bld Auto"/>
    </code>
    <valueQuantity>
      <value value="54.0"/>
      <unit value="%"/>
      <system value="http://unitsofmeasure.org" />
      <code value=""/>
    </valueQuantity>
    
    <effectiveDateTime value="2011-02-03"/>
    <status value="final"/>
    <subject>
      <reference value="Patient/8888804"/>
    </subject>
  </Observation>
  
  </resource>
  <request>
    <method value="POST"/>
    <url value="Observation/3301-lab"/>
  </request>
</entry>
<entry>
  <resource>
    
    
  <Observation>
  <id value="3302-lab"/>
    <text>
      <status value="generated"/>
      <div xmlns="http://www.w3.org/1999/xhtml">2011-02-03: Lymphocytes NFr Bld = 36 %</div>
    </text>
    <code>
      <coding>
        <system value="http://loinc.org"/>
        <code value="26478-8"/>
        <display value="Lymphocytes NFr Bld"/>
      </coding>
      <text value="Lymphocytes NFr Bld"/>
    </code>
    <valueQuantity>
      <value value="36.0"/>
      <unit value="%"/>
      <system value="http://unitsofmeasure.org" />
      <code value=""/>
    </valueQuantity>
    
    <effectiveDateTime value="2011-02-03"/>
    <status value="final"/>
    <subject>
      <reference value="Patient/8888804"/>
    </subject>
  </Observation>
  
  </resource>
  <request>
    <method value="POST"/>
    <url value="Observation/3302-lab"/>
  </request>
</entry>
<entry>
  <resource>
    
    
  <Observation>
  <id value="3303-lab"/>
    <text>
      <status value="generated"/>
      <div xmlns="http://www.w3.org/1999/xhtml">2011-02-03: Basophils NFr Bld = 1 %</div>
    </text>
    <code>
      <coding>
        <system value="http://loinc.org"/>
        <code value="30180-4"/>
        <display value="Basophils NFr Bld"/>
      </coding>
      <text value="Basophils NFr Bld"/>
    </code>
    <valueQuantity>
      <value value="1.0"/>
      <unit value="%"/>
      <system value="http://unitsofmeasure.org" />
      <code value=""/>
    </valueQuantity>
    
    <effectiveDateTime value="2011-02-03"/>
    <status value="final"/>
    <subject>
      <reference value="Patient/8888804"/>
    </subject>
  </Observation>
  
  </resource>
  <request>
    <method value="POST"/>
    <url value="Observation/3303-lab"/>
  </request>
</entry>
<entry>
  <resource>
    
    
  <Observation>
  <id value="3304-lab"/>
    <text>
      <status value="generated"/>
      <div xmlns="http://www.w3.org/1999/xhtml">2011-02-03: Eosinophil NFr Bld = 4 %</div>
    </text>
    <code>
      <coding>
        <system value="http://loinc.org"/>
        <code value="26450-7"/>
        <display value="Eosinophil NFr Bld"/>
      </coding>
      <text value="Eosinophil NFr Bld"/>
    </code>
    <valueQuantity>
      <value value="4.0"/>
      <unit value="%"/>
      <system value="http://unitsofmeasure.org" />
      <code value=""/>
    </valueQuantity>
    
    <effectiveDateTime value="2011-02-03"/>
    <status value="final"/>
    <subject>
      <reference value="Patient/8888804"/>
    </subject>
  </Observation>
  
  </resource>
  <request>
    <method value="POST"/>
    <url value="Observation/3304-lab"/>
  </request>
</entry>
<entry>
  <resource>
    
    
  <Observation>
  <id value="3305-lab"/>
    <text>
      <status value="generated"/>
      <div xmlns="http://www.w3.org/1999/xhtml">2011-02-03: Monocytes NFr Bld = 6 %</div>
    </text>
    <code>
      <coding>
        <system value="http://loinc.org"/>
        <code value="26485-3"/>
        <display value="Monocytes NFr Bld"/>
      </coding>
      <text value="Monocytes NFr Bld"/>
    </code>
    <valueQuantity>
      <value value="6.0"/>
      <unit value="%"/>
      <system value="http://unitsofmeasure.org" />
      <code value=""/>
    </valueQuantity>
    
    <effectiveDateTime value="2011-02-03"/>
    <status value="final"/>
    <subject>
      <reference value="Patient/8888804"/>
    </subject>
  </Observation>
  
  </resource>
  <request>
    <method value="POST"/>
    <url value="Observation/3305-lab"/>
  </request>
</entry>
<entry>
  <resource>
    
    
  <Observation>
  <id value="3306-lab"/>
    <text>
      <status value="generated"/>
      <div xmlns="http://www.w3.org/1999/xhtml">2011-02-03: Platelet # Bld = 392 10*3/uL</div>
    </text>
    <code>
      <coding>
        <system value="http://loinc.org"/>
        <code value="26515-7"/>
        <display value="Platelet # Bld"/>
      </coding>
      <text value="Platelet # Bld"/>
    </code>
    <valueQuantity>
      <value value="392.0"/>
      <unit value="10*3/uL"/>
      <system value="http://unitsofmeasure.org" />
      <code value=""/>
    </valueQuantity>
    
    <effectiveDateTime value="2011-02-03"/>
    <status value="final"/>
    <subject>
      <reference value="Patient/8888804"/>
    </subject>
  </Observation>
  
  </resource>
  <request>
    <method value="POST"/>
    <url value="Observation/3306-lab"/>
  </request>
</entry>
<entry>
  <resource>
    
    
  <Observation>
  <id value="3307-lab"/>
    <text>
      <status value="generated"/>
      <div xmlns="http://www.w3.org/1999/xhtml">2011-02-03: Glucose SerPl-mCnc = 91 mg/dL</div>
    </text>
    <code>
      <coding>
        <system value="http://loinc.org"/>
        <code value="2345-7"/>
        <display value="Glucose SerPl-mCnc"/>
      </coding>
      <text value="Glucose SerPl-mCnc"/>
    </code>
    <valueQuantity>
      <value value="91.0"/>
      <unit value="mg/dL"/>
      <system value="http://unitsofmeasure.org" />
      <code value=""/>
    </valueQuantity>
    
    <effectiveDateTime value="2011-02-03"/>
    <status value="final"/>
    <subject>
      <reference value="Patient/8888804"/>
    </subject>
  </Observation>
  
  </resource>
  <request>
    <method value="POST"/>
    <url value="Observation/3307-lab"/>
  </request>
</entry>
<entry>
  <resource>
    
    
  <Observation>
  <id value="3308-lab"/>
    <text>
      <status value="generated"/>
      <div xmlns="http://www.w3.org/1999/xhtml">2011-02-03: Calcium SerPl-mCnc = 9.2 mg/dL</div>
    </text>
    <code>
      <coding>
        <system value="http://loinc.org"/>
        <code value="17861-6"/>
        <display value="Calcium SerPl-mCnc"/>
      </coding>
      <text value="Calcium SerPl-mCnc"/>
    </code>
    <valueQuantity>
      <value value="9.2"/>
      <unit value="mg/dL"/>
      <system value="http://unitsofmeasure.org" />
      <code value=""/>
    </valueQuantity>
    
    <effectiveDateTime value="2011-02-03"/>
    <status value="final"/>
    <subject>
      <reference value="Patient/8888804"/>
    </subject>
  </Observation>
  
  </resource>
  <request>
    <method value="POST"/>
    <url value="Observation/3308-lab"/>
  </request>
</entry>
<entry>
  <resource>
    
    
  <Observation>
  <id value="3309-lab"/>
    <text>
      <status value="generated"/>
      <div xmlns="http://www.w3.org/1999/xhtml">2011-02-03: Prot SerPl-mCnc = 6.9 g/dL</div>
    </text>
    <code>
      <coding>
        <system value="http://loinc.org"/>
        <code value="2885-2"/>
        <display value="Prot SerPl-mCnc"/>
      </coding>
      <text value="Prot SerPl-mCnc"/>
    </code>
    <valueQuantity>
      <value value="6.9"/>
      <unit value="g/dL"/>
      <system value="http://unitsofmeasure.org" />
      <code value=""/>
    </valueQuantity>
    
    <effectiveDateTime value="2011-02-03"/>
    <status value="final"/>
    <subject>
      <reference value="Patient/8888804"/>
    </subject>
  </Observation>
  
  </resource>
  <request>
    <method value="POST"/>
    <url value="Observation/3309-lab"/>
  </request>
</entry>
<entry>
  <resource>
    
    
  <Observation>
  <id value="3310-lab"/>
    <text>
      <status value="generated"/>
      <div xmlns="http://www.w3.org/1999/xhtml">2011-02-03: Albumin SerPl-mCnc = 4.1 g/dL</div>
    </text>
    <code>
      <coding>
        <system value="http://loinc.org"/>
        <code value="1751-7"/>
        <display value="Albumin SerPl-mCnc"/>
      </coding>
      <text value="Albumin SerPl-mCnc"/>
    </code>
    <valueQuantity>
      <value value="4.1"/>
      <unit value="g/dL"/>
      <system value="http://unitsofmeasure.org" />
      <code value=""/>
    </valueQuantity>
    
    <effectiveDateTime value="2011-02-03"/>
    <status value="final"/>
    <subject>
      <reference value="Patient/8888804"/>
    </subject>
  </Observation>
  
  </resource>
  <request>
    <method value="POST"/>
    <url value="Observation/3310-lab"/>
  </request>
</entry>
<entry>
  <resource>
    
    
  <Observation>
  <id value="3311-lab"/>
    <text>
      <status value="generated"/>
      <div xmlns="http://www.w3.org/1999/xhtml">2011-02-03: Sodium SerPl-sCnc = 142 mmol/L</div>
    </text>
    <code>
      <coding>
        <system value="http://loinc.org"/>
        <code value="2951-2"/>
        <display value="Sodium SerPl-sCnc"/>
      </coding>
      <text value="Sodium SerPl-sCnc"/>
    </code>
    <valueQuantity>
      <value value="142.0"/>
      <unit value="mmol/L"/>
      <system value="http://unitsofmeasure.org" />
      <code value=""/>
    </valueQuantity>
    
    <effectiveDateTime value="2011-02-03"/>
    <status value="final"/>
    <subject>
      <reference value="Patient/8888804"/>
    </subject>
  </Observation>
  
  </resource>
  <request>
    <method value="POST"/>
    <url value="Observation/3311-lab"/>
  </request>
</entry>
<entry>
  <resource>
    
    
  <Observation>
  <id value="3312-lab"/>
    <text>
      <status value="generated"/>
      <div xmlns="http://www.w3.org/1999/xhtml">2011-02-03: Potassium SerPl-sCnc = 4.4 mmol/L</div>
    </text>
    <code>
      <coding>
        <system value="http://loinc.org"/>
        <code value="2823-3"/>
        <display value="Potassium SerPl-sCnc"/>
      </coding>
      <text value="Potassium SerPl-sCnc"/>
    </code>
    <valueQuantity>
      <value value="4.4"/>
      <unit value="mmol/L"/>
      <system value="http://unitsofmeasure.org" />
      <code value=""/>
    </valueQuantity>
    
    <effectiveDateTime value="2011-02-03"/>
    <status value="final"/>
    <subject>
      <reference value="Patient/8888804"/>
    </subject>
  </Observation>
  
  </resource>
  <request>
    <method value="POST"/>
    <url value="Observation/3312-lab"/>
  </request>
</entry>
<entry>
  <resource>
    
    
  <Observation>
  <id value="3313-lab"/>
    <text>
      <status value="generated"/>
      <div xmlns="http://www.w3.org/1999/xhtml">2011-02-03: CO2 SerPl-sCnc = 24 mmol/L</div>
    </text>
    <code>
      <coding>
        <system value="http://loinc.org"/>
        <code value="2028-9"/>
        <display value="CO2 SerPl-sCnc"/>
      </coding>
      <text value="CO2 SerPl-sCnc"/>
    </code>
    <valueQuantity>
      <value value="24.0"/>
      <unit value="mmol/L"/>
      <system value="http://unitsofmeasure.org" />
      <code value=""/>
    </valueQuantity>
    
    <effectiveDateTime value="2011-02-03"/>
    <status value="final"/>
    <subject>
      <reference value="Patient/8888804"/>
    </subject>
  </Observation>
  
  </resource>
  <request>
    <method value="POST"/>
    <url value="Observation/3313-lab"/>
  </request>
</entry>
<entry>
  <resource>
    
    
  <Observation>
  <id value="3314-lab"/>
    <text>
      <status value="generated"/>
      <div xmlns="http://www.w3.org/1999/xhtml">2011-02-03: Chloride SerPl-sCnc = 105 mmol/L</div>
    </text>
    <code>
      <coding>
        <system value="http://loinc.org"/>
        <code value="2075-0"/>
        <display value="Chloride SerPl-sCnc"/>
      </coding>
      <text value="Chloride SerPl-sCnc"/>
    </code>
    <valueQuantity>
      <value value="105.0"/>
      <unit value="mmol/L"/>
      <system value="http://unitsofmeasure.org" />
      <code value=""/>
    </valueQuantity>
    
    <effectiveDateTime value="2011-02-03"/>
    <status value="final"/>
    <subject>
      <reference value="Patient/8888804"/>
    </subject>
  </Observation>
  
  </resource>
  <request>
    <method value="POST"/>
    <url value="Observation/3314-lab"/>
  </request>
</entry>
<entry>
  <resource>
    
    
  <Observation>
  <id value="3315-lab"/>
    <text>
      <status value="generated"/>
      <div xmlns="http://www.w3.org/1999/xhtml">2011-02-03: BUN SerPl-mCnc = 10 mg/dL</div>
    </text>
    <code>
      <coding>
        <system value="http://loinc.org"/>
        <code value="3094-0"/>
        <display value="BUN SerPl-mCnc"/>
      </coding>
      <text value="BUN SerPl-mCnc"/>
    </code>
    <valueQuantity>
      <value value="10.0"/>
      <unit value="mg/dL"/>
      <system value="http://unitsofmeasure.org" />
      <code value=""/>
    </valueQuantity>
    
    <effectiveDateTime value="2011-02-03"/>
    <status value="final"/>
    <subject>
      <reference value="Patient/8888804"/>
    </subject>
  </Observation>
  
  </resource>
  <request>
    <method value="POST"/>
    <url value="Observation/3315-lab"/>
  </request>
</entry>
<entry>
  <resource>
    
    
  <Observation>
  <id value="3316-lab"/>
    <text>
      <status value="generated"/>
      <div xmlns="http://www.w3.org/1999/xhtml">2011-02-03: Creat SerPl-mCnc = 0.71 mg/dL</div>
    </text>
    <code>
      <coding>
        <system value="http://loinc.org"/>
        <code value="2160-0"/>
        <display value="Creat SerPl-mCnc"/>
      </coding>
      <text value="Creat SerPl-mCnc"/>
    </code>
    <valueQuantity>
      <value value="0.71"/>
      <unit value="mg/dL"/>
      <system value="http://unitsofmeasure.org" />
      <code value=""/>
    </valueQuantity>
    
    <effectiveDateTime value="2011-02-03"/>
    <status value="final"/>
    <subject>
      <reference value="Patient/8888804"/>
    </subject>
  </Observation>
  
  </resource>
  <request>
    <method value="POST"/>
    <url value="Observation/3316-lab"/>
  </request>
</entry>
<entry>
  <resource>
    
    
  <Observation>
  <id value="3317-lab"/>
    <text>
      <status value="generated"/>
      <div xmlns="http://www.w3.org/1999/xhtml">2011-02-03: ALP SerPl-cCnc = 62 U/L</div>
    </text>
    <code>
      <coding>
        <system value="http://loinc.org"/>
        <code value="6768-6"/>
        <display value="ALP SerPl-cCnc"/>
      </coding>
      <text value="ALP SerPl-cCnc"/>
    </code>
    <valueQuantity>
      <value value="62.0"/>
      <unit value="U/L"/>
      <system value="http://unitsofmeasure.org" />
      <code value=""/>
    </valueQuantity>
    
    <effectiveDateTime value="2011-02-03"/>
    <status value="final"/>
    <subject>
      <reference value="Patient/8888804"/>
    </subject>
  </Observation>
  
  </resource>
  <request>
    <method value="POST"/>
    <url value="Observation/3317-lab"/>
  </request>
</entry>
<entry>
  <resource>
    
    
  <Observation>
  <id value="3318-lab"/>
    <text>
      <status value="generated"/>
      <div xmlns="http://www.w3.org/1999/xhtml">2011-02-03: ALT SerPl-cCnc = 22 U/L</div>
    </text>
    <code>
      <coding>
        <system value="http://loinc.org"/>
        <code value="1742-6"/>
        <display value="ALT SerPl-cCnc"/>
      </coding>
      <text value="ALT SerPl-cCnc"/>
    </code>
    <valueQuantity>
      <value value="22.0"/>
      <unit value="U/L"/>
      <system value="http://unitsofmeasure.org" />
      <code value=""/>
    </valueQuantity>
    
    <effectiveDateTime value="2011-02-03"/>
    <status value="final"/>
    <subject>
      <reference value="Patient/8888804"/>
    </subject>
  </Observation>
  
  </resource>
  <request>
    <method value="POST"/>
    <url value="Observation/3318-lab"/>
  </request>
</entry>
<entry>
  <resource>
    
    
  <Observation>
  <id value="3319-lab"/>
    <text>
      <status value="generated"/>
      <div xmlns="http://www.w3.org/1999/xhtml">2011-02-03: AST SerPl-cCnc = 18 U/L</div>
    </text>
    <code>
      <coding>
        <system value="http://loinc.org"/>
        <code value="1920-8"/>
        <display value="AST SerPl-cCnc"/>
      </coding>
      <text value="AST SerPl-cCnc"/>
    </code>
    <valueQuantity>
      <value value="18.0"/>
      <unit value="U/L"/>
      <system value="http://unitsofmeasure.org" />
      <code value=""/>
    </valueQuantity>
    
    <effectiveDateTime value="2011-02-03"/>
    <status value="final"/>
    <subject>
      <reference value="Patient/8888804"/>
    </subject>
  </Observation>
  
  </resource>
  <request>
    <method value="POST"/>
    <url value="Observation/3319-lab"/>
  </request>
</entry>
<entry>
  <resource>
    
    
  <Observation>
  <id value="3320-lab"/>
    <text>
      <status value="generated"/>
      <div xmlns="http://www.w3.org/1999/xhtml">2011-02-03: Bilirub SerPl-mCnc = 0.4 mg/dL</div>
    </text>
    <code>
      <coding>
        <system value="http://loinc.org"/>
        <code value="1975-2"/>
        <display value="Bilirub SerPl-mCnc"/>
      </coding>
      <text value="Bilirub SerPl-mCnc"/>
    </code>
    <valueQuantity>
      <value value="0.4"/>
      <unit value="mg/dL"/>
      <system value="http://unitsofmeasure.org" />
      <code value=""/>
    </valueQuantity>
    
    <effectiveDateTime value="2011-02-03"/>
    <status value="final"/>
    <subject>
      <reference value="Patient/8888804"/>
    </subject>
  </Observation>
  
  </resource>
  <request>
    <method value="POST"/>
    <url value="Observation/3320-lab"/>
  </request>
</entry>
<entry>
  <resource>
    
    
  <Observation>
  <id value="3321-lab"/>
    <text>
      <status value="generated"/>
      <div xmlns="http://www.w3.org/1999/xhtml">2011-02-03: 25(OH)D3 SerPl-mCnc = 40 ng/mL</div>
    </text>
    <code>
      <coding>
        <system value="http://loinc.org"/>
        <code value="1989-3"/>
        <display value="25(OH)D3 SerPl-mCnc"/>
      </coding>
      <text value="25(OH)D3 SerPl-mCnc"/>
    </code>
    <valueQuantity>
      <value value="40.0"/>
      <unit value="ng/mL"/>
      <system value="http://unitsofmeasure.org" />
      <code value=""/>
    </valueQuantity>
    
    <effectiveDateTime value="2011-02-03"/>
    <status value="final"/>
    <subject>
      <reference value="Patient/8888804"/>
    </subject>
  </Observation>
  
  </resource>
  <request>
    <method value="POST"/>
    <url value="Observation/3321-lab"/>
  </request>
</entry>
<entry>
  <resource>
    
    
  <Observation>
  <id value="3322-lab"/>
    <text>
      <status value="generated"/>
      <div xmlns="http://www.w3.org/1999/xhtml">2011-02-03: Urate SerPl-mCnc = 7.2 mg/dL</div>
    </text>
    <code>
      <coding>
        <system value="http://loinc.org"/>
        <code value="3084-1"/>
        <display value="Urate SerPl-mCnc"/>
      </coding>
      <text value="Urate SerPl-mCnc"/>
    </code>
    <valueQuantity>
      <value value="7.2"/>
      <unit value="mg/dL"/>
      <system value="http://unitsofmeasure.org" />
      <code value=""/>
    </valueQuantity>
    
    <effectiveDateTime value="2011-02-03"/>
    <status value="final"/>
    <subject>
      <reference value="Patient/8888804"/>
    </subject>
  </Observation>
  
  </resource>
  <request>
    <method value="POST"/>
    <url value="Observation/3322-lab"/>
  </request>
</entry>
<entry>
  <resource>
    
    
  <Observation>
  <id value="3323-lab"/>
    <text>
      <status value="generated"/>
      <div xmlns="http://www.w3.org/1999/xhtml">2011-02-03: ESR Bld Qn = 4 mm/h</div>
    </text>
    <code>
      <coding>
        <system value="http://loinc.org"/>
        <code value="30341-2"/>
        <display value="ESR Bld Qn"/>
      </coding>
      <text value="ESR Bld Qn"/>
    </code>
    <valueQuantity>
      <value value="4.0"/>
      <unit value="mm/h"/>
      <system value="http://unitsofmeasure.org" />
      <code value=""/>
    </valueQuantity>
    
    <effectiveDateTime value="2011-02-03"/>
    <status value="final"/>
    <subject>
      <reference value="Patient/8888804"/>
    </subject>
  </Observation>
  
  </resource>
  <request>
    <method value="POST"/>
    <url value="Observation/3323-lab"/>
  </request>
</entry>
<entry>
  <resource>
    
    
  <Observation>
  <id value="3324-lab"/>
    <text>
      <status value="generated"/>
      <div xmlns="http://www.w3.org/1999/xhtml">2011-02-03: ANA Ser EIA-aCnc = 0 [IU]/mL</div>
    </text>
    <code>
      <coding>
        <system value="http://loinc.org"/>
        <code value="5047-6"/>
        <display value="ANA Ser EIA-aCnc"/>
      </coding>
      <text value="ANA Ser EIA-aCnc"/>
    </code>
    <valueQuantity>
      <value value="0.0"/>
      <unit value="[IU]/mL"/>
      <system value="http://unitsofmeasure.org" />
      <code value=""/>
    </valueQuantity>
    
    <effectiveDateTime value="2011-02-03"/>
    <status value="final"/>
    <subject>
      <reference value="Patient/8888804"/>
    </subject>
  </Observation>
  
  </resource>
  <request>
    <method value="POST"/>
    <url value="Observation/3324-lab"/>
  </request>
</entry>
<entry>
  <resource>
    
    
  <Observation>
  <id value="3325-lab"/>
    <text>
      <status value="generated"/>
      <div xmlns="http://www.w3.org/1999/xhtml">2011-02-03: Rheumatoid fact Ser-aCnc = 0 [IU]/mL</div>
    </text>
    <code>
      <coding>
        <system value="http://loinc.org"/>
        <code value="11572-5"/>
        <display value="Rheumatoid fact Ser-aCnc"/>
      </coding>
      <text value="Rheumatoid fact Ser-aCnc"/>
    </code>
    <valueQuantity>
      <value value="0.0"/>
      <unit value="[IU]/mL"/>
      <system value="http://unitsofmeasure.org" />
      <code value=""/>
    </valueQuantity>
    
    <effectiveDateTime value="2011-02-03"/>
    <status value="final"/>
    <subject>
      <reference value="Patient/8888804"/>
    </subject>
  </Observation>
  
  </resource>
  <request>
    <method value="POST"/>
    <url value="Observation/3325-lab"/>
  </request>
</entry>
<entry>
  <resource>
    
    
  <Observation>
  <id value="3326-lab"/>
    <text>
      <status value="generated"/>
      <div xmlns="http://www.w3.org/1999/xhtml">2011-02-03: Testost SerPl-mCnc = 598 ng/dL</div>
    </text>
    <code>
      <coding>
        <system value="http://loinc.org"/>
        <code value="2986-8"/>
        <display value="Testost SerPl-mCnc"/>
      </coding>
      <text value="Testost SerPl-mCnc"/>
    </code>
    <valueQuantity>
      <value value="598.0"/>
      <unit value="ng/dL"/>
      <system value="http://unitsofmeasure.org" />
      <code value=""/>
    </valueQuantity>
    
    <effectiveDateTime value="2011-02-03"/>
    <status value="final"/>
    <subject>
      <reference value="Patient/8888804"/>
    </subject>
  </Observation>
  
  </resource>
  <request>
    <method value="POST"/>
    <url value="Observation/3326-lab"/>
  </request>
</entry>
<entry>
  <resource>
    
    
  <Observation>
  <id value="3327-lab"/>
    <text>
      <status value="generated"/>
      <div xmlns="http://www.w3.org/1999/xhtml">2011-02-03: Testost Free SerPl-sCnc = 139 pmol/L</div>
    </text>
    <code>
      <coding>
        <system value="http://loinc.org"/>
        <code value="14914-6"/>
        <display value="Testost Free SerPl-sCnc"/>
      </coding>
      <text value="Testost Free SerPl-sCnc"/>
    </code>
    <valueQuantity>
      <value value="139.0"/>
      <unit value="pmol/L"/>
      <system value="http://unitsofmeasure.org" />
      <code value=""/>
    </valueQuantity>
    
    <effectiveDateTime value="2011-02-03"/>
    <status value="final"/>
    <subject>
      <reference value="Patient/8888804"/>
    </subject>
  </Observation>
  
  </resource>
  <request>
    <method value="POST"/>
    <url value="Observation/3327-lab"/>
  </request>
</entry>
<entry>
  <resource>
    
    
  <Observation>
  <id value="3328-lab"/>
    <text>
      <status value="generated"/>
      <div xmlns="http://www.w3.org/1999/xhtml">2011-02-03: Cholest SerPl-mCnc = 165 mg/dL</div>
    </text>
    <code>
      <coding>
        <system value="http://loinc.org"/>
        <code value="2093-3"/>
        <display value="Cholest SerPl-mCnc"/>
      </coding>
      <text value="Cholest SerPl-mCnc"/>
    </code>
    <valueQuantity>
      <value value="165.0"/>
      <unit value="mg/dL"/>
      <system value="http://unitsofmeasure.org" />
      <code value=""/>
    </valueQuantity>
    
    <effectiveDateTime value="2011-02-03"/>
    <status value="final"/>
    <subject>
      <reference value="Patient/8888804"/>
    </subject>
  </Observation>
  
  </resource>
  <request>
    <method value="POST"/>
    <url value="Observation/3328-lab"/>
  </request>
</entry>
<entry>
  <resource>
    
    
  <Observation>
  <id value="3329-lab"/>
    <text>
      <status value="generated"/>
      <div xmlns="http://www.w3.org/1999/xhtml">2011-02-03: HDLc SerPl-mCnc = 44 mg/dL</div>
    </text>
    <code>
      <coding>
        <system value="http://loinc.org"/>
        <code value="2085-9"/>
        <display value="HDLc SerPl-mCnc"/>
      </coding>
      <text value="HDLc SerPl-mCnc"/>
    </code>
    <valueQuantity>
      <value value="44.0"/>
      <unit value="mg/dL"/>
      <system value="http://unitsofmeasure.org" />
      <code value=""/>
    </valueQuantity>
    
    <effectiveDateTime value="2011-02-03"/>
    <status value="final"/>
    <subject>
      <reference value="Patient/8888804"/>
    </subject>
  </Observation>
  
  </resource>
  <request>
    <method value="POST"/>
    <url value="Observation/3329-lab"/>
  </request>
</entry>
<entry>
  <resource>
    
    
  <Observation>
  <id value="3330-lab"/>
    <text>
      <status value="generated"/>
      <div xmlns="http://www.w3.org/1999/xhtml">2011-02-03: LDLc SerPl Direct Assay-mCnc = 88 mg/dL</div>
    </text>
    <code>
      <coding>
        <system value="http://loinc.org"/>
        <code value="18262-6"/>
        <display value="LDLc SerPl Direct Assay-mCnc"/>
      </coding>
      <text value="LDLc SerPl Direct Assay-mCnc"/>
    </code>
    <valueQuantity>
      <value value="88.0"/>
      <unit value="mg/dL"/>
      <system value="http://unitsofmeasure.org" />
      <code value=""/>
    </valueQuantity>
    
    <effectiveDateTime value="2011-02-03"/>
    <status value="final"/>
    <subject>
      <reference value="Patient/8888804"/>
    </subject>
  </Observation>
  
  </resource>
  <request>
    <method value="POST"/>
    <url value="Observation/3330-lab"/>
  </request>
</entry>
<entry>
  <resource>
    
    
  <Observation>
  <id value="3331-lab"/>
    <text>
      <status value="generated"/>
      <div xmlns="http://www.w3.org/1999/xhtml">2011-02-03: Trigl SerPl-mCnc = 72 mg/dL</div>
    </text>
    <code>
      <coding>
        <system value="http://loinc.org"/>
        <code value="2571-8"/>
        <display value="Trigl SerPl-mCnc"/>
      </coding>
      <text value="Trigl SerPl-mCnc"/>
    </code>
    <valueQuantity>
      <value value="72.0"/>
      <unit value="mg/dL"/>
      <system value="http://unitsofmeasure.org" />
      <code value=""/>
    </valueQuantity>
    
    <effectiveDateTime value="2011-02-03"/>
    <status value="final"/>
    <subject>
      <reference value="Patient/8888804"/>
    </subject>
  </Observation>
  
  </resource>
  <request>
    <method value="POST"/>
    <url value="Observation/3331-lab"/>
  </request>
</entry>
<entry>
  <resource>
    
    
  <Observation>
  <id value="3332-lab"/>
    <text>
      <status value="generated"/>
      <div xmlns="http://www.w3.org/1999/xhtml">2011-02-03: TSH SerPl DL&lt;=0.005 mU/L-aCnc = 1.32 m[IU]/L</div>
    </text>
    <code>
      <coding>
        <system value="http://loinc.org"/>
        <code value="11580-8"/>
        <display value="TSH SerPl DL&lt;=0.005 mU/L-aCnc"/>
      </coding>
      <text value="TSH SerPl DL&lt;=0.005 mU/L-aCnc"/>
    </code>
    <valueQuantity>
      <value value="1.32"/>
      <unit value="m[IU]/L"/>
      <system value="http://unitsofmeasure.org" />
      <code value=""/>
    </valueQuantity>
    
    <effectiveDateTime value="2011-02-03"/>
    <status value="final"/>
    <subject>
      <reference value="Patient/8888804"/>
    </subject>
  </Observation>
  
  </resource>
  <request>
    <method value="POST"/>
    <url value="Observation/3332-lab"/>
  </request>
</entry>
<entry>
  <resource>
    
    
  <Observation>
  <id value="3333-lab"/>
    <text>
      <status value="generated"/>
      <div xmlns="http://www.w3.org/1999/xhtml">2011-02-03: Appearance Ur = clear, yellow </div>
    </text>
    <code>
      <coding>
        <system value="http://loinc.org"/>
        <code value="5767-9"/>
        <display value="Appearance Ur"/>
      </coding>
      <text value="Appearance Ur"/>
    </code>
    <valueString value="clear, yellow"/>
    
    <effectiveDateTime value="2011-02-03"/>
    <status value="final"/>
    <subject>
      <reference value="Patient/8888804"/>
    </subject>
  </Observation>
  
  </resource>
  <request>
    <method value="POST"/>
    <url value="Observation/3333-lab"/>
  </request>
</entry>
<entry>
  <resource>
    
    
  <Observation>
  <id value="3334-lab"/>
    <extension url="http://fhir-registry.smarthealthit.org/StructureDefinition/labs#value-range" >
        <valueString value='[&#39;Negative&#39;, &#39;Positive&#39;]'/>
    </extension>
    
    <text>
      <status value="generated"/>
      <div xmlns="http://www.w3.org/1999/xhtml">2011-02-03: Bilirub Ur Ql Strip = Negative </div>
    </text>
    <code>
      <coding>
        <system value="http://loinc.org"/>
        <code value="5770-3"/>
        <display value="Bilirub Ur Ql Strip"/>
      </coding>
      <text value="Bilirub Ur Ql Strip"/>
    </code>
    <valueString value="Negative"/>
    
    <effectiveDateTime value="2011-02-03"/>
    <status value="final"/>
    <subject>
      <reference value="Patient/8888804"/>
    </subject>
  </Observation>
  
  </resource>
  <request>
    <method value="POST"/>
    <url value="Observation/3334-lab"/>
  </request>
</entry>
<entry>
  <resource>
    
    
  <Observation>
  <id value="3335-lab"/>
    <text>
      <status value="generated"/>
      <div xmlns="http://www.w3.org/1999/xhtml">2011-02-03: Glucose Ur Strip-mCnc = 0 mg/dL</div>
    </text>
    <code>
      <coding>
        <system value="http://loinc.org"/>
        <code value="5792-7"/>
        <display value="Glucose Ur Strip-mCnc"/>
      </coding>
      <text value="Glucose Ur Strip-mCnc"/>
    </code>
    <valueQuantity>
      <value value="0.0"/>
      <unit value="mg/dL"/>
      <system value="http://unitsofmeasure.org" />
      <code value=""/>
    </valueQuantity>
    
    <effectiveDateTime value="2011-02-03"/>
    <status value="final"/>
    <subject>
      <reference value="Patient/8888804"/>
    </subject>
  </Observation>
  
  </resource>
  <request>
    <method value="POST"/>
    <url value="Observation/3335-lab"/>
  </request>
</entry>
<entry>
  <resource>
    
    
  <Observation>
  <id value="3336-lab"/>
    <extension url="http://fhir-registry.smarthealthit.org/StructureDefinition/labs#value-range" >
        <valueString value='[&#39;Negative&#39;, &#39;Positive&#39;]'/>
    </extension>
    
    <text>
      <status value="generated"/>
      <div xmlns="http://www.w3.org/1999/xhtml">2011-02-03: Ketones Ur Ql = Negative </div>
    </text>
    <code>
      <coding>
        <system value="http://loinc.org"/>
        <code value="33903-6"/>
        <display value="Ketones Ur Ql"/>
      </coding>
      <text value="Ketones Ur Ql"/>
    </code>
    <valueString value="Negative"/>
    
    <effectiveDateTime value="2011-02-03"/>
    <status value="final"/>
    <subject>
      <reference value="Patient/8888804"/>
    </subject>
  </Observation>
  
  </resource>
  <request>
    <method value="POST"/>
    <url value="Observation/3336-lab"/>
  </request>
</entry>
<entry>
  <resource>
    
    
  <Observation>
  <id value="3337-lab"/>
    <extension url="http://fhir-registry.smarthealthit.org/StructureDefinition/labs#value-range" >
        <valueString value='[&#39;Negative&#39;, &#39;Positive&#39;]'/>
    </extension>
    
    <text>
      <status value="generated"/>
      <div xmlns="http://www.w3.org/1999/xhtml">2011-02-03: Leukocyte esterase Ur Ql Strip = Negative </div>
    </text>
    <code>
      <coding>
        <system value="http://loinc.org"/>
        <code value="5799-2"/>
        <display value="Leukocyte esterase Ur Ql Strip"/>
      </coding>
      <text value="Leukocyte esterase Ur Ql Strip"/>
    </code>
    <valueString value="Negative"/>
    
    <effectiveDateTime value="2011-02-03"/>
    <status value="final"/>
    <subject>
      <reference value="Patient/8888804"/>
    </subject>
  </Observation>
  
  </resource>
  <request>
    <method value="POST"/>
    <url value="Observation/3337-lab"/>
  </request>
</entry>
<entry>
  <resource>
    
    
  <Observation>
  <id value="3338-lab"/>
    <extension url="http://fhir-registry.smarthealthit.org/StructureDefinition/labs#value-range" >
        <valueString value='[&#39;Negative&#39;, &#39;Positive&#39;]'/>
    </extension>
    
    <text>
      <status value="generated"/>
      <div xmlns="http://www.w3.org/1999/xhtml">2011-02-03: Nitrite Ur Ql Strip = Negative </div>
    </text>
    <code>
      <coding>
        <system value="http://loinc.org"/>
        <code value="5802-4"/>
        <display value="Nitrite Ur Ql Strip"/>
      </coding>
      <text value="Nitrite Ur Ql Strip"/>
    </code>
    <valueString value="Negative"/>
    
    <effectiveDateTime value="2011-02-03"/>
    <status value="final"/>
    <subject>
      <reference value="Patient/8888804"/>
    </subject>
  </Observation>
  
  </resource>
  <request>
    <method value="POST"/>
    <url value="Observation/3338-lab"/>
  </request>
</entry>
<entry>
  <resource>
    
    
  <Observation>
  <id value="3339-lab"/>
    <extension url="http://fhir-registry.smarthealthit.org/StructureDefinition/labs#value-range" >
        <valueString value='[&#39;Negative&#39;, &#39;Positive&#39;]'/>
    </extension>
    
    <text>
      <status value="generated"/>
      <div xmlns="http://www.w3.org/1999/xhtml">2011-02-03: Hgb Ur Ql Strip = Negative </div>
    </text>
    <code>
      <coding>
        <system value="http://loinc.org"/>
        <code value="5794-3"/>
        <display value="Hgb Ur Ql Strip"/>
      </coding>
      <text value="Hgb Ur Ql Strip"/>
    </code>
    <valueString value="Negative"/>
    
    <effectiveDateTime value="2011-02-03"/>
    <status value="final"/>
    <subject>
      <reference value="Patient/8888804"/>
    </subject>
  </Observation>
  
  </resource>
  <request>
    <method value="POST"/>
    <url value="Observation/3339-lab"/>
  </request>
</entry>
<entry>
  <resource>
    
    
  <Observation>
  <id value="3340-lab"/>
    <text>
      <status value="generated"/>
      <div xmlns="http://www.w3.org/1999/xhtml">2011-02-03: pH Ur Strip = 5 [pH]</div>
    </text>
    <code>
      <coding>
        <system value="http://loinc.org"/>
        <code value="5803-2"/>
        <display value="pH Ur Strip"/>
      </coding>
      <text value="pH Ur Strip"/>
    </code>
    <valueQuantity>
      <value value="5.0"/>
      <unit value="[pH]"/>
      <system value="http://unitsofmeasure.org" />
      <code value=""/>
    </valueQuantity>
    
    <effectiveDateTime value="2011-02-03"/>
    <status value="final"/>
    <subject>
      <reference value="Patient/8888804"/>
    </subject>
  </Observation>
  
  </resource>
  <request>
    <method value="POST"/>
    <url value="Observation/3340-lab"/>
  </request>
</entry>
<entry>
  <resource>
    
    
  <Observation>
  <id value="3341-lab"/>
    <text>
      <status value="generated"/>
      <div xmlns="http://www.w3.org/1999/xhtml">2011-02-03: Prot Ur Strip-mCnc = 0 mg/dL</div>
    </text>
    <code>
      <coding>
        <system value="http://loinc.org"/>
        <code value="5804-0"/>
        <display value="Prot Ur Strip-mCnc"/>
      </coding>
      <text value="Prot Ur Strip-mCnc"/>
    </code>
    <valueQuantity>
      <value value="0.0"/>
      <unit value="mg/dL"/>
      <system value="http://unitsofmeasure.org" />
      <code value=""/>
    </valueQuantity>
    
    <effectiveDateTime value="2011-02-03"/>
    <status value="final"/>
    <subject>
      <reference value="Patient/8888804"/>
    </subject>
  </Observation>
  
  </resource>
  <request>
    <method value="POST"/>
    <url value="Observation/3341-lab"/>
  </request>
</entry>
<entry>
  <resource>
    
    
  <Observation>
  <id value="3342-lab"/>
    <text>
      <status value="generated"/>
      <div xmlns="http://www.w3.org/1999/xhtml">2011-02-03: Sp Gr Ur Strip = 1.01 </div>
    </text>
    <code>
      <coding>
        <system value="http://loinc.org"/>
        <code value="5811-5"/>
        <display value="Sp Gr Ur Strip"/>
      </coding>
      <text value="Sp Gr Ur Strip"/>
    </code>
    <valueQuantity>
      <value value="1.01"/>
      <unit value=""/>
      <system value="http://unitsofmeasure.org" />
      <code value=""/>
    </valueQuantity>
    
    <effectiveDateTime value="2011-02-03"/>
    <status value="final"/>
    <subject>
      <reference value="Patient/8888804"/>
    </subject>
  </Observation>
  
  </resource>
  <request>
    <method value="POST"/>
    <url value="Observation/3342-lab"/>
  </request>
</entry>
<entry>
  <resource>
    
    
  <Observation>
  <id value="3343-lab"/>
    <text>
      <status value="generated"/>
      <div xmlns="http://www.w3.org/1999/xhtml">2012-01-17: Hct VFr Bld Auto = 48.2 %</div>
    </text>
    <code>
      <coding>
        <system value="http://loinc.org"/>
        <code value="4544-3"/>
        <display value="Hct VFr Bld Auto"/>
      </coding>
      <text value="Hct VFr Bld Auto"/>
    </code>
    <valueQuantity>
      <value value="48.2"/>
      <unit value="%"/>
      <system value="http://unitsofmeasure.org" />
      <code value=""/>
    </valueQuantity>
    
    <effectiveDateTime value="2012-01-17"/>
    <status value="final"/>
    <subject>
      <reference value="Patient/8888804"/>
    </subject>
  </Observation>
  
  </resource>
  <request>
    <method value="POST"/>
    <url value="Observation/3343-lab"/>
  </request>
</entry>
<entry>
  <resource>
    
    
  <Observation>
  <id value="3344-lab"/>
    <text>
      <status value="generated"/>
      <div xmlns="http://www.w3.org/1999/xhtml">2012-01-17: RBC # Bld Auto = 4.21 10*6/uL</div>
    </text>
    <code>
      <coding>
        <system value="http://loinc.org"/>
        <code value="789-8"/>
        <display value="RBC # Bld Auto"/>
      </coding>
      <text value="RBC # Bld Auto"/>
    </code>
    <valueQuantity>
      <value value="4.21"/>
      <unit value="10*6/uL"/>
      <system value="http://unitsofmeasure.org" />
      <code value=""/>
    </valueQuantity>
    
    <effectiveDateTime value="2012-01-17"/>
    <status value="final"/>
    <subject>
      <reference value="Patient/8888804"/>
    </subject>
  </Observation>
  
  </resource>
  <request>
    <method value="POST"/>
    <url value="Observation/3344-lab"/>
  </request>
</entry>
<entry>
  <resource>
    
    
  <Observation>
  <id value="3345-lab"/>
    <text>
      <status value="generated"/>
      <div xmlns="http://www.w3.org/1999/xhtml">2012-01-17: MCV RBC = 89 fL</div>
    </text>
    <code>
      <coding>
        <system value="http://loinc.org"/>
        <code value="30428-7"/>
        <display value="MCV RBC"/>
      </coding>
      <text value="MCV RBC"/>
    </code>
    <valueQuantity>
      <value value="89.0"/>
      <unit value="fL"/>
      <system value="http://unitsofmeasure.org" />
      <code value=""/>
    </valueQuantity>
    
    <effectiveDateTime value="2012-01-17"/>
    <status value="final"/>
    <subject>
      <reference value="Patient/8888804"/>
    </subject>
  </Observation>
  
  </resource>
  <request>
    <method value="POST"/>
    <url value="Observation/3345-lab"/>
  </request>
</entry>
<entry>
  <resource>
    
    
  <Observation>
  <id value="3346-lab"/>
    <text>
      <status value="generated"/>
      <div xmlns="http://www.w3.org/1999/xhtml">2012-01-17: MCH RBC Qn Auto = 29 pg</div>
    </text>
    <code>
      <coding>
        <system value="http://loinc.org"/>
        <code value="785-6"/>
        <display value="MCH RBC Qn Auto"/>
      </coding>
      <text value="MCH RBC Qn Auto"/>
    </code>
    <valueQuantity>
      <value value="29.0"/>
      <unit value="pg"/>
      <system value="http://unitsofmeasure.org" />
      <code value=""/>
    </valueQuantity>
    
    <effectiveDateTime value="2012-01-17"/>
    <status value="final"/>
    <subject>
      <reference value="Patient/8888804"/>
    </subject>
  </Observation>
  
  </resource>
  <request>
    <method value="POST"/>
    <url value="Observation/3346-lab"/>
  </request>
</entry>
<entry>
  <resource>
    
    
  <Observation>
  <id value="3347-lab"/>
    <text>
      <status value="generated"/>
      <div xmlns="http://www.w3.org/1999/xhtml">2012-01-17: MCHC RBC Auto-mCnc = 31 g/dL</div>
    </text>
    <code>
      <coding>
        <system value="http://loinc.org"/>
        <code value="786-4"/>
        <display value="MCHC RBC Auto-mCnc"/>
      </coding>
      <text value="MCHC RBC Auto-mCnc"/>
    </code>
    <valueQuantity>
      <value value="31.0"/>
      <unit value="g/dL"/>
      <system value="http://unitsofmeasure.org" />
      <code value=""/>
    </valueQuantity>
    
    <effectiveDateTime value="2012-01-17"/>
    <status value="final"/>
    <subject>
      <reference value="Patient/8888804"/>
    </subject>
  </Observation>
  
  </resource>
  <request>
    <method value="POST"/>
    <url value="Observation/3347-lab"/>
  </request>
</entry>
<entry>
  <resource>
    
    
  <Observation>
  <id value="3348-lab"/>
    <text>
      <status value="generated"/>
      <div xmlns="http://www.w3.org/1999/xhtml">2012-01-17: RDW RBC-Rto = 14.4 %</div>
    </text>
    <code>
      <coding>
        <system value="http://loinc.org"/>
        <code value="30385-9"/>
        <display value="RDW RBC-Rto"/>
      </coding>
      <text value="RDW RBC-Rto"/>
    </code>
    <valueQuantity>
      <value value="14.4"/>
      <unit value="%"/>
      <system value="http://unitsofmeasure.org" />
      <code value=""/>
    </valueQuantity>
    
    <effectiveDateTime value="2012-01-17"/>
    <status value="final"/>
    <subject>
      <reference value="Patient/8888804"/>
    </subject>
  </Observation>
  
  </resource>
  <request>
    <method value="POST"/>
    <url value="Observation/3348-lab"/>
  </request>
</entry>
<entry>
  <resource>
    
    
  <Observation>
  <id value="3349-lab"/>
    <text>
      <status value="generated"/>
      <div xmlns="http://www.w3.org/1999/xhtml">2012-01-17: WBC # Bld = 8.2 10*3/uL</div>
    </text>
    <code>
      <coding>
        <system value="http://loinc.org"/>
        <code value="26464-8"/>
        <display value="WBC # Bld"/>
      </coding>
      <text value="WBC # Bld"/>
    </code>
    <valueQuantity>
      <value value="8.2"/>
      <unit value="10*3/uL"/>
      <system value="http://unitsofmeasure.org" />
      <code value=""/>
    </valueQuantity>
    
    <effectiveDateTime value="2012-01-17"/>
    <status value="final"/>
    <subject>
      <reference value="Patient/8888804"/>
    </subject>
  </Observation>
  
  </resource>
  <request>
    <method value="POST"/>
    <url value="Observation/3349-lab"/>
  </request>
</entry>
<entry>
  <resource>
    
    
  <Observation>
  <id value="3350-lab"/>
    <text>
      <status value="generated"/>
      <div xmlns="http://www.w3.org/1999/xhtml">2012-01-17: Neutrophils NFr Bld Auto = 49 %</div>
    </text>
    <code>
      <coding>
        <system value="http://loinc.org"/>
        <code value="770-8"/>
        <display value="Neutrophils NFr Bld Auto"/>
      </coding>
      <text value="Neutrophils NFr Bld Auto"/>
    </code>
    <valueQuantity>
      <value value="49.0"/>
      <unit value="%"/>
      <system value="http://unitsofmeasure.org" />
      <code value=""/>
    </valueQuantity>
    
    <effectiveDateTime value="2012-01-17"/>
    <status value="final"/>
    <subject>
      <reference value="Patient/8888804"/>
    </subject>
  </Observation>
  
  </resource>
  <request>
    <method value="POST"/>
    <url value="Observation/3350-lab"/>
  </request>
</entry>
<entry>
  <resource>
    
    
  <Observation>
  <id value="3351-lab"/>
    <text>
      <status value="generated"/>
      <div xmlns="http://www.w3.org/1999/xhtml">2012-01-17: Lymphocytes NFr Bld = 41 %</div>
    </text>
    <code>
      <coding>
        <system value="http://loinc.org"/>
        <code value="26478-8"/>
        <display value="Lymphocytes NFr Bld"/>
      </coding>
      <text value="Lymphocytes NFr Bld"/>
    </code>
    <valueQuantity>
      <value value="41.0"/>
      <unit value="%"/>
      <system value="http://unitsofmeasure.org" />
      <code value=""/>
    </valueQuantity>
    
    <effectiveDateTime value="2012-01-17"/>
    <status value="final"/>
    <subject>
      <reference value="Patient/8888804"/>
    </subject>
  </Observation>
  
  </resource>
  <request>
    <method value="POST"/>
    <url value="Observation/3351-lab"/>
  </request>
</entry>
<entry>
  <resource>
    
    
  <Observation>
  <id value="3352-lab"/>
    <text>
      <status value="generated"/>
      <div xmlns="http://www.w3.org/1999/xhtml">2012-01-17: Basophils NFr Bld = 0 %</div>
    </text>
    <code>
      <coding>
        <system value="http://loinc.org"/>
        <code value="30180-4"/>
        <display value="Basophils NFr Bld"/>
      </coding>
      <text value="Basophils NFr Bld"/>
    </code>
    <valueQuantity>
      <value value="0.0"/>
      <unit value="%"/>
      <system value="http://unitsofmeasure.org" />
      <code value=""/>
    </valueQuantity>
    
    <effectiveDateTime value="2012-01-17"/>
    <status value="final"/>
    <subject>
      <reference value="Patient/8888804"/>
    </subject>
  </Observation>
  
  </resource>
  <request>
    <method value="POST"/>
    <url value="Observation/3352-lab"/>
  </request>
</entry>
<entry>
  <resource>
    
    
  <Observation>
  <id value="3353-lab"/>
    <text>
      <status value="generated"/>
      <div xmlns="http://www.w3.org/1999/xhtml">2012-01-17: Eosinophil NFr Bld = 5 %</div>
    </text>
    <code>
      <coding>
        <system value="http://loinc.org"/>
        <code value="26450-7"/>
        <display value="Eosinophil NFr Bld"/>
      </coding>
      <text value="Eosinophil NFr Bld"/>
    </code>
    <valueQuantity>
      <value value="5.0"/>
      <unit value="%"/>
      <system value="http://unitsofmeasure.org" />
      <code value=""/>
    </valueQuantity>
    
    <effectiveDateTime value="2012-01-17"/>
    <status value="final"/>
    <subject>
      <reference value="Patient/8888804"/>
    </subject>
  </Observation>
  
  </resource>
  <request>
    <method value="POST"/>
    <url value="Observation/3353-lab"/>
  </request>
</entry>
<entry>
  <resource>
    
    
  <Observation>
  <id value="3354-lab"/>
    <text>
      <status value="generated"/>
      <div xmlns="http://www.w3.org/1999/xhtml">2012-01-17: Monocytes NFr Bld = 6 %</div>
    </text>
    <code>
      <coding>
        <system value="http://loinc.org"/>
        <code value="26485-3"/>
        <display value="Monocytes NFr Bld"/>
      </coding>
      <text value="Monocytes NFr Bld"/>
    </code>
    <valueQuantity>
      <value value="6.0"/>
      <unit value="%"/>
      <system value="http://unitsofmeasure.org" />
      <code value=""/>
    </valueQuantity>
    
    <effectiveDateTime value="2012-01-17"/>
    <status value="final"/>
    <subject>
      <reference value="Patient/8888804"/>
    </subject>
  </Observation>
  
  </resource>
  <request>
    <method value="POST"/>
    <url value="Observation/3354-lab"/>
  </request>
</entry>
<entry>
  <resource>
    
    
  <Observation>
  <id value="3355-lab"/>
    <text>
      <status value="generated"/>
      <div xmlns="http://www.w3.org/1999/xhtml">2012-01-17: Platelet # Bld = 347 10*3/uL</div>
    </text>
    <code>
      <coding>
        <system value="http://loinc.org"/>
        <code value="26515-7"/>
        <display value="Platelet # Bld"/>
      </coding>
      <text value="Platelet # Bld"/>
    </code>
    <valueQuantity>
      <value value="347.0"/>
      <unit value="10*3/uL"/>
      <system value="http://unitsofmeasure.org" />
      <code value=""/>
    </valueQuantity>
    
    <effectiveDateTime value="2012-01-17"/>
    <status value="final"/>
    <subject>
      <reference value="Patient/8888804"/>
    </subject>
  </Observation>
  
  </resource>
  <request>
    <method value="POST"/>
    <url value="Observation/3355-lab"/>
  </request>
</entry>
<entry>
  <resource>
    
    
  <Observation>
  <id value="3356-lab"/>
    <text>
      <status value="generated"/>
      <div xmlns="http://www.w3.org/1999/xhtml">2012-01-17: Glucose SerPl-mCnc = 82 mg/dL</div>
    </text>
    <code>
      <coding>
        <system value="http://loinc.org"/>
        <code value="2345-7"/>
        <display value="Glucose SerPl-mCnc"/>
      </coding>
      <text value="Glucose SerPl-mCnc"/>
    </code>
    <valueQuantity>
      <value value="82.0"/>
      <unit value="mg/dL"/>
      <system value="http://unitsofmeasure.org" />
      <code value=""/>
    </valueQuantity>
    
    <effectiveDateTime value="2012-01-17"/>
    <status value="final"/>
    <subject>
      <reference value="Patient/8888804"/>
    </subject>
  </Observation>
  
  </resource>
  <request>
    <method value="POST"/>
    <url value="Observation/3356-lab"/>
  </request>
</entry>
<entry>
  <resource>
    
    
  <Observation>
  <id value="3357-lab"/>
    <text>
      <status value="generated"/>
      <div xmlns="http://www.w3.org/1999/xhtml">2012-01-17: Calcium SerPl-mCnc = 8.9 mg/dL</div>
    </text>
    <code>
      <coding>
        <system value="http://loinc.org"/>
        <code value="17861-6"/>
        <display value="Calcium SerPl-mCnc"/>
      </coding>
      <text value="Calcium SerPl-mCnc"/>
    </code>
    <valueQuantity>
      <value value="8.9"/>
      <unit value="mg/dL"/>
      <system value="http://unitsofmeasure.org" />
      <code value=""/>
    </valueQuantity>
    
    <effectiveDateTime value="2012-01-17"/>
    <status value="final"/>
    <subject>
      <reference value="Patient/8888804"/>
    </subject>
  </Observation>
  
  </resource>
  <request>
    <method value="POST"/>
    <url value="Observation/3357-lab"/>
  </request>
</entry>
<entry>
  <resource>
    
    
  <Observation>
  <id value="3358-lab"/>
    <text>
      <status value="generated"/>
      <div xmlns="http://www.w3.org/1999/xhtml">2012-01-17: Prot SerPl-mCnc = 6.8 g/dL</div>
    </text>
    <code>
      <coding>
        <system value="http://loinc.org"/>
        <code value="2885-2"/>
        <display value="Prot SerPl-mCnc"/>
      </coding>
      <text value="Prot SerPl-mCnc"/>
    </code>
    <valueQuantity>
      <value value="6.8"/>
      <unit value="g/dL"/>
      <system value="http://unitsofmeasure.org" />
      <code value=""/>
    </valueQuantity>
    
    <effectiveDateTime value="2012-01-17"/>
    <status value="final"/>
    <subject>
      <reference value="Patient/8888804"/>
    </subject>
  </Observation>
  
  </resource>
  <request>
    <method value="POST"/>
    <url value="Observation/3358-lab"/>
  </request>
</entry>
<entry>
  <resource>
    
    
  <Observation>
  <id value="3359-lab"/>
    <text>
      <status value="generated"/>
      <div xmlns="http://www.w3.org/1999/xhtml">2012-01-17: Albumin SerPl-mCnc = 4.2 g/dL</div>
    </text>
    <code>
      <coding>
        <system value="http://loinc.org"/>
        <code value="1751-7"/>
        <display value="Albumin SerPl-mCnc"/>
      </coding>
      <text value="Albumin SerPl-mCnc"/>
    </code>
    <valueQuantity>
      <value value="4.2"/>
      <unit value="g/dL"/>
      <system value="http://unitsofmeasure.org" />
      <code value=""/>
    </valueQuantity>
    
    <effectiveDateTime value="2012-01-17"/>
    <status value="final"/>
    <subject>
      <reference value="Patient/8888804"/>
    </subject>
  </Observation>
  
  </resource>
  <request>
    <method value="POST"/>
    <url value="Observation/3359-lab"/>
  </request>
</entry>
<entry>
  <resource>
    
    
  <Observation>
  <id value="3360-lab"/>
    <text>
      <status value="generated"/>
      <div xmlns="http://www.w3.org/1999/xhtml">2012-01-17: Sodium SerPl-sCnc = 144 mmol/L</div>
    </text>
    <code>
      <coding>
        <system value="http://loinc.org"/>
        <code value="2951-2"/>
        <display value="Sodium SerPl-sCnc"/>
      </coding>
      <text value="Sodium SerPl-sCnc"/>
    </code>
    <valueQuantity>
      <value value="144.0"/>
      <unit value="mmol/L"/>
      <system value="http://unitsofmeasure.org" />
      <code value=""/>
    </valueQuantity>
    
    <effectiveDateTime value="2012-01-17"/>
    <status value="final"/>
    <subject>
      <reference value="Patient/8888804"/>
    </subject>
  </Observation>
  
  </resource>
  <request>
    <method value="POST"/>
    <url value="Observation/3360-lab"/>
  </request>
</entry>
<entry>
  <resource>
    
    
  <Observation>
  <id value="3361-lab"/>
    <text>
      <status value="generated"/>
      <div xmlns="http://www.w3.org/1999/xhtml">2012-01-17: Potassium SerPl-sCnc = 4.7 mmol/L</div>
    </text>
    <code>
      <coding>
        <system value="http://loinc.org"/>
        <code value="2823-3"/>
        <display value="Potassium SerPl-sCnc"/>
      </coding>
      <text value="Potassium SerPl-sCnc"/>
    </code>
    <valueQuantity>
      <value value="4.7"/>
      <unit value="mmol/L"/>
      <system value="http://unitsofmeasure.org" />
      <code value=""/>
    </valueQuantity>
    
    <effectiveDateTime value="2012-01-17"/>
    <status value="final"/>
    <subject>
      <reference value="Patient/8888804"/>
    </subject>
  </Observation>
  
  </resource>
  <request>
    <method value="POST"/>
    <url value="Observation/3361-lab"/>
  </request>
</entry>
<entry>
  <resource>
    
    
  <Observation>
  <id value="3362-lab"/>
    <text>
      <status value="generated"/>
      <div xmlns="http://www.w3.org/1999/xhtml">2012-01-17: CO2 SerPl-sCnc = 23 mmol/L</div>
    </text>
    <code>
      <coding>
        <system value="http://loinc.org"/>
        <code value="2028-9"/>
        <display value="CO2 SerPl-sCnc"/>
      </coding>
      <text value="CO2 SerPl-sCnc"/>
    </code>
    <valueQuantity>
      <value value="23.0"/>
      <unit value="mmol/L"/>
      <system value="http://unitsofmeasure.org" />
      <code value=""/>
    </valueQuantity>
    
    <effectiveDateTime value="2012-01-17"/>
    <status value="final"/>
    <subject>
      <reference value="Patient/8888804"/>
    </subject>
  </Observation>
  
  </resource>
  <request>
    <method value="POST"/>
    <url value="Observation/3362-lab"/>
  </request>
</entry>
<entry>
  <resource>
    
    
  <Observation>
  <id value="3363-lab"/>
    <text>
      <status value="generated"/>
      <div xmlns="http://www.w3.org/1999/xhtml">2012-01-17: Chloride SerPl-sCnc = 104 mmol/L</div>
    </text>
    <code>
      <coding>
        <system value="http://loinc.org"/>
        <code value="2075-0"/>
        <display value="Chloride SerPl-sCnc"/>
      </coding>
      <text value="Chloride SerPl-sCnc"/>
    </code>
    <valueQuantity>
      <value value="104.0"/>
      <unit value="mmol/L"/>
      <system value="http://unitsofmeasure.org" />
      <code value=""/>
    </valueQuantity>
    
    <effectiveDateTime value="2012-01-17"/>
    <status value="final"/>
    <subject>
      <reference value="Patient/8888804"/>
    </subject>
  </Observation>
  
  </resource>
  <request>
    <method value="POST"/>
    <url value="Observation/3363-lab"/>
  </request>
</entry>
<entry>
  <resource>
    
    
  <Observation>
  <id value="3364-lab"/>
    <text>
      <status value="generated"/>
      <div xmlns="http://www.w3.org/1999/xhtml">2012-01-17: BUN SerPl-mCnc = 12 mg/dL</div>
    </text>
    <code>
      <coding>
        <system value="http://loinc.org"/>
        <code value="3094-0"/>
        <display value="BUN SerPl-mCnc"/>
      </coding>
      <text value="BUN SerPl-mCnc"/>
    </code>
    <valueQuantity>
      <value value="12.0"/>
      <unit value="mg/dL"/>
      <system value="http://unitsofmeasure.org" />
      <code value=""/>
    </valueQuantity>
    
    <effectiveDateTime value="2012-01-17"/>
    <status value="final"/>
    <subject>
      <reference value="Patient/8888804"/>
    </subject>
  </Observation>
  
  </resource>
  <request>
    <method value="POST"/>
    <url value="Observation/3364-lab"/>
  </request>
</entry>
<entry>
  <resource>
    
    
  <Observation>
  <id value="3365-lab"/>
    <text>
      <status value="generated"/>
      <div xmlns="http://www.w3.org/1999/xhtml">2012-01-17: Creat SerPl-mCnc = 0.82 mg/dL</div>
    </text>
    <code>
      <coding>
        <system value="http://loinc.org"/>
        <code value="2160-0"/>
        <display value="Creat SerPl-mCnc"/>
      </coding>
      <text value="Creat SerPl-mCnc"/>
    </code>
    <valueQuantity>
      <value value="0.82"/>
      <unit value="mg/dL"/>
      <system value="http://unitsofmeasure.org" />
      <code value=""/>
    </valueQuantity>
    
    <effectiveDateTime value="2012-01-17"/>
    <status value="final"/>
    <subject>
      <reference value="Patient/8888804"/>
    </subject>
  </Observation>
  
  </resource>
  <request>
    <method value="POST"/>
    <url value="Observation/3365-lab"/>
  </request>
</entry>
<entry>
  <resource>
    
    
  <Observation>
  <id value="3366-lab"/>
    <text>
      <status value="generated"/>
      <div xmlns="http://www.w3.org/1999/xhtml">2012-01-17: ALP SerPl-cCnc = 65 U/L</div>
    </text>
    <code>
      <coding>
        <system value="http://loinc.org"/>
        <code value="6768-6"/>
        <display value="ALP SerPl-cCnc"/>
      </coding>
      <text value="ALP SerPl-cCnc"/>
    </code>
    <valueQuantity>
      <value value="65.0"/>
      <unit value="U/L"/>
      <system value="http://unitsofmeasure.org" />
      <code value=""/>
    </valueQuantity>
    
    <effectiveDateTime value="2012-01-17"/>
    <status value="final"/>
    <subject>
      <reference value="Patient/8888804"/>
    </subject>
  </Observation>
  
  </resource>
  <request>
    <method value="POST"/>
    <url value="Observation/3366-lab"/>
  </request>
</entry>
<entry>
  <resource>
    
    
  <Observation>
  <id value="3367-lab"/>
    <text>
      <status value="generated"/>
      <div xmlns="http://www.w3.org/1999/xhtml">2012-01-17: ALT SerPl-cCnc = 52 U/L</div>
    </text>
    <code>
      <coding>
        <system value="http://loinc.org"/>
        <code value="1742-6"/>
        <display value="ALT SerPl-cCnc"/>
      </coding>
      <text value="ALT SerPl-cCnc"/>
    </code>
    <valueQuantity>
      <value value="52.0"/>
      <unit value="U/L"/>
      <system value="http://unitsofmeasure.org" />
      <code value=""/>
    </valueQuantity>
    
    <effectiveDateTime value="2012-01-17"/>
    <status value="final"/>
    <subject>
      <reference value="Patient/8888804"/>
    </subject>
  </Observation>
  
  </resource>
  <request>
    <method value="POST"/>
    <url value="Observation/3367-lab"/>
  </request>
</entry>
<entry>
  <resource>
    
    
  <Observation>
  <id value="3368-lab"/>
    <text>
      <status value="generated"/>
      <div xmlns="http://www.w3.org/1999/xhtml">2012-01-17: AST SerPl-cCnc = 38 U/L</div>
    </text>
    <code>
      <coding>
        <system value="http://loinc.org"/>
        <code value="1920-8"/>
        <display value="AST SerPl-cCnc"/>
      </coding>
      <text value="AST SerPl-cCnc"/>
    </code>
    <valueQuantity>
      <value value="38.0"/>
      <unit value="U/L"/>
      <system value="http://unitsofmeasure.org" />
      <code value=""/>
    </valueQuantity>
    
    <effectiveDateTime value="2012-01-17"/>
    <status value="final"/>
    <subject>
      <reference value="Patient/8888804"/>
    </subject>
  </Observation>
  
  </resource>
  <request>
    <method value="POST"/>
    <url value="Observation/3368-lab"/>
  </request>
</entry>
<entry>
  <resource>
    
    
  <Observation>
  <id value="3369-lab"/>
    <text>
      <status value="generated"/>
      <div xmlns="http://www.w3.org/1999/xhtml">2012-01-17: Bilirub SerPl-mCnc = 0.5 mg/dL</div>
    </text>
    <code>
      <coding>
        <system value="http://loinc.org"/>
        <code value="1975-2"/>
        <display value="Bilirub SerPl-mCnc"/>
      </coding>
      <text value="Bilirub SerPl-mCnc"/>
    </code>
    <valueQuantity>
      <value value="0.5"/>
      <unit value="mg/dL"/>
      <system value="http://unitsofmeasure.org" />
      <code value=""/>
    </valueQuantity>
    
    <effectiveDateTime value="2012-01-17"/>
    <status value="final"/>
    <subject>
      <reference value="Patient/8888804"/>
    </subject>
  </Observation>
  
  </resource>
  <request>
    <method value="POST"/>
    <url value="Observation/3369-lab"/>
  </request>
</entry>
<entry>
  <resource>
    
    
  <Observation>
  <id value="3370-lab"/>
    <text>
      <status value="generated"/>
      <div xmlns="http://www.w3.org/1999/xhtml">2012-01-17: 25(OH)D3 SerPl-mCnc = 45 ng/mL</div>
    </text>
    <code>
      <coding>
        <system value="http://loinc.org"/>
        <code value="1989-3"/>
        <display value="25(OH)D3 SerPl-mCnc"/>
      </coding>
      <text value="25(OH)D3 SerPl-mCnc"/>
    </code>
    <valueQuantity>
      <value value="45.0"/>
      <unit value="ng/mL"/>
      <system value="http://unitsofmeasure.org" />
      <code value=""/>
    </valueQuantity>
    
    <effectiveDateTime value="2012-01-17"/>
    <status value="final"/>
    <subject>
      <reference value="Patient/8888804"/>
    </subject>
  </Observation>
  
  </resource>
  <request>
    <method value="POST"/>
    <url value="Observation/3370-lab"/>
  </request>
</entry>
<entry>
  <resource>
    
    
  <Observation>
  <id value="3371-lab"/>
    <text>
      <status value="generated"/>
      <div xmlns="http://www.w3.org/1999/xhtml">2012-01-17: PSA SerPl-mCnc = 0.82 ng/mL</div>
    </text>
    <code>
      <coding>
        <system value="http://loinc.org"/>
        <code value="2857-1"/>
        <display value="PSA SerPl-mCnc"/>
      </coding>
      <text value="PSA SerPl-mCnc"/>
    </code>
    <valueQuantity>
      <value value="0.82"/>
      <unit value="ng/mL"/>
      <system value="http://unitsofmeasure.org" />
      <code value=""/>
    </valueQuantity>
    
    <effectiveDateTime value="2012-01-17"/>
    <status value="final"/>
    <subject>
      <reference value="Patient/8888804"/>
    </subject>
  </Observation>
  
  </resource>
  <request>
    <method value="POST"/>
    <url value="Observation/3371-lab"/>
  </request>
</entry>
<entry>
  <resource>
    
    
  <Observation>
  <id value="3372-lab"/>
    <text>
      <status value="generated"/>
      <div xmlns="http://www.w3.org/1999/xhtml">2012-01-17: Urate SerPl-mCnc = 6.8 mg/dL</div>
    </text>
    <code>
      <coding>
        <system value="http://loinc.org"/>
        <code value="3084-1"/>
        <display value="Urate SerPl-mCnc"/>
      </coding>
      <text value="Urate SerPl-mCnc"/>
    </code>
    <valueQuantity>
      <value value="6.8"/>
      <unit value="mg/dL"/>
      <system value="http://unitsofmeasure.org" />
      <code value=""/>
    </valueQuantity>
    
    <effectiveDateTime value="2012-01-17"/>
    <status value="final"/>
    <subject>
      <reference value="Patient/8888804"/>
    </subject>
  </Observation>
  
  </resource>
  <request>
    <method value="POST"/>
    <url value="Observation/3372-lab"/>
  </request>
</entry>
<entry>
  <resource>
    
    
  <Observation>
  <id value="3373-lab"/>
    <text>
      <status value="generated"/>
      <div xmlns="http://www.w3.org/1999/xhtml">2012-01-17: Testost SerPl-mCnc = 462 ng/dL</div>
    </text>
    <code>
      <coding>
        <system value="http://loinc.org"/>
        <code value="2986-8"/>
        <display value="Testost SerPl-mCnc"/>
      </coding>
      <text value="Testost SerPl-mCnc"/>
    </code>
    <valueQuantity>
      <value value="462.0"/>
      <unit value="ng/dL"/>
      <system value="http://unitsofmeasure.org" />
      <code value=""/>
    </valueQuantity>
    
    <effectiveDateTime value="2012-01-17"/>
    <status value="final"/>
    <subject>
      <reference value="Patient/8888804"/>
    </subject>
  </Observation>
  
  </resource>
  <request>
    <method value="POST"/>
    <url value="Observation/3373-lab"/>
  </request>
</entry>
<entry>
  <resource>
    
    
  <Observation>
  <id value="3374-lab"/>
    <text>
      <status value="generated"/>
      <div xmlns="http://www.w3.org/1999/xhtml">2012-01-17: Testost Free SerPl-sCnc = 125 pmol/L</div>
    </text>
    <code>
      <coding>
        <system value="http://loinc.org"/>
        <code value="14914-6"/>
        <display value="Testost Free SerPl-sCnc"/>
      </coding>
      <text value="Testost Free SerPl-sCnc"/>
    </code>
    <valueQuantity>
      <value value="125.0"/>
      <unit value="pmol/L"/>
      <system value="http://unitsofmeasure.org" />
      <code value=""/>
    </valueQuantity>
    
    <effectiveDateTime value="2012-01-17"/>
    <status value="final"/>
    <subject>
      <reference value="Patient/8888804"/>
    </subject>
  </Observation>
  
  </resource>
  <request>
    <method value="POST"/>
    <url value="Observation/3374-lab"/>
  </request>
</entry>
<entry>
  <resource>
    
    
  <Observation>
  <id value="3375-lab"/>
    <text>
      <status value="generated"/>
      <div xmlns="http://www.w3.org/1999/xhtml">2012-01-17: Cholest SerPl-mCnc = 155 mg/dL</div>
    </text>
    <code>
      <coding>
        <system value="http://loinc.org"/>
        <code value="2093-3"/>
        <display value="Cholest SerPl-mCnc"/>
      </coding>
      <text value="Cholest SerPl-mCnc"/>
    </code>
    <valueQuantity>
      <value value="155.0"/>
      <unit value="mg/dL"/>
      <system value="http://unitsofmeasure.org" />
      <code value=""/>
    </valueQuantity>
    
    <effectiveDateTime value="2012-01-17"/>
    <status value="final"/>
    <subject>
      <reference value="Patient/8888804"/>
    </subject>
  </Observation>
  
  </resource>
  <request>
    <method value="POST"/>
    <url value="Observation/3375-lab"/>
  </request>
</entry>
<entry>
  <resource>
    
    
  <Observation>
  <id value="3376-lab"/>
    <text>
      <status value="generated"/>
      <div xmlns="http://www.w3.org/1999/xhtml">2012-01-17: HDLc SerPl-mCnc = 45 mg/dL</div>
    </text>
    <code>
      <coding>
        <system value="http://loinc.org"/>
        <code value="2085-9"/>
        <display value="HDLc SerPl-mCnc"/>
      </coding>
      <text value="HDLc SerPl-mCnc"/>
    </code>
    <valueQuantity>
      <value value="45.0"/>
      <unit value="mg/dL"/>
      <system value="http://unitsofmeasure.org" />
      <code value=""/>
    </valueQuantity>
    
    <effectiveDateTime value="2012-01-17"/>
    <status value="final"/>
    <subject>
      <reference value="Patient/8888804"/>
    </subject>
  </Observation>
  
  </resource>
  <request>
    <method value="POST"/>
    <url value="Observation/3376-lab"/>
  </request>
</entry>
<entry>
  <resource>
    
    
  <Observation>
  <id value="3377-lab"/>
    <text>
      <status value="generated"/>
      <div xmlns="http://www.w3.org/1999/xhtml">2012-01-17: LDLc SerPl Direct Assay-mCnc = 72 mg/dL</div>
    </text>
    <code>
      <coding>
        <system value="http://loinc.org"/>
        <code value="18262-6"/>
        <display value="LDLc SerPl Direct Assay-mCnc"/>
      </coding>
      <text value="LDLc SerPl Direct Assay-mCnc"/>
    </code>
    <valueQuantity>
      <value value="72.0"/>
      <unit value="mg/dL"/>
      <system value="http://unitsofmeasure.org" />
      <code value=""/>
    </valueQuantity>
    
    <effectiveDateTime value="2012-01-17"/>
    <status value="final"/>
    <subject>
      <reference value="Patient/8888804"/>
    </subject>
  </Observation>
  
  </resource>
  <request>
    <method value="POST"/>
    <url value="Observation/3377-lab"/>
  </request>
</entry>
<entry>
  <resource>
    
    
  <Observation>
  <id value="3378-lab"/>
    <text>
      <status value="generated"/>
      <div xmlns="http://www.w3.org/1999/xhtml">2012-01-17: Trigl SerPl-mCnc = 66 mg/dL</div>
    </text>
    <code>
      <coding>
        <system value="http://loinc.org"/>
        <code value="2571-8"/>
        <display value="Trigl SerPl-mCnc"/>
      </coding>
      <text value="Trigl SerPl-mCnc"/>
    </code>
    <valueQuantity>
      <value value="66.0"/>
      <unit value="mg/dL"/>
      <system value="http://unitsofmeasure.org" />
      <code value=""/>
    </valueQuantity>
    
    <effectiveDateTime value="2012-01-17"/>
    <status value="final"/>
    <subject>
      <reference value="Patient/8888804"/>
    </subject>
  </Observation>
  
  </resource>
  <request>
    <method value="POST"/>
    <url value="Observation/3378-lab"/>
  </request>
</entry>
<entry>
  <resource>
    
    
  <Observation>
  <id value="3379-lab"/>
    <text>
      <status value="generated"/>
      <div xmlns="http://www.w3.org/1999/xhtml">2012-01-17: TSH SerPl DL&lt;=0.005 mU/L-aCnc = 4.64 m[IU]/L</div>
    </text>
    <code>
      <coding>
        <system value="http://loinc.org"/>
        <code value="11580-8"/>
        <display value="TSH SerPl DL&lt;=0.005 mU/L-aCnc"/>
      </coding>
      <text value="TSH SerPl DL&lt;=0.005 mU/L-aCnc"/>
    </code>
    <valueQuantity>
      <value value="4.64"/>
      <unit value="m[IU]/L"/>
      <system value="http://unitsofmeasure.org" />
      <code value=""/>
    </valueQuantity>
    
    <effectiveDateTime value="2012-01-17"/>
    <status value="final"/>
    <subject>
      <reference value="Patient/8888804"/>
    </subject>
  </Observation>
  
  </resource>
  <request>
    <method value="POST"/>
    <url value="Observation/3379-lab"/>
  </request>
</entry>
<entry>
  <resource>
    
    
  <Observation>
  <id value="3380-lab"/>
    <text>
      <status value="generated"/>
      <div xmlns="http://www.w3.org/1999/xhtml">2012-01-17: T4 Free SerPl-mCnc = 0.8 ng/dL</div>
    </text>
    <code>
      <coding>
        <system value="http://loinc.org"/>
        <code value="3024-7"/>
        <display value="T4 Free SerPl-mCnc"/>
      </coding>
      <text value="T4 Free SerPl-mCnc"/>
    </code>
    <valueQuantity>
      <value value="0.8"/>
      <unit value="ng/dL"/>
      <system value="http://unitsofmeasure.org" />
      <code value=""/>
    </valueQuantity>
    
    <effectiveDateTime value="2012-01-17"/>
    <status value="final"/>
    <subject>
      <reference value="Patient/8888804"/>
    </subject>
  </Observation>
  
  </resource>
  <request>
    <method value="POST"/>
    <url value="Observation/3380-lab"/>
  </request>
</entry>
<entry>
  <resource>
    
    
  <Observation>
  <id value="3381-lab"/>
    <text>
      <status value="generated"/>
      <div xmlns="http://www.w3.org/1999/xhtml">2012-01-17: Appearance Ur = clear, gold </div>
    </text>
    <code>
      <coding>
        <system value="http://loinc.org"/>
        <code value="5767-9"/>
        <display value="Appearance Ur"/>
      </coding>
      <text value="Appearance Ur"/>
    </code>
    <valueString value="clear, gold"/>
    
    <effectiveDateTime value="2012-01-17"/>
    <status value="final"/>
    <subject>
      <reference value="Patient/8888804"/>
    </subject>
  </Observation>
  
  </resource>
  <request>
    <method value="POST"/>
    <url value="Observation/3381-lab"/>
  </request>
</entry>
<entry>
  <resource>
    
    
  <Observation>
  <id value="3382-lab"/>
    <extension url="http://fhir-registry.smarthealthit.org/StructureDefinition/labs#value-range" >
        <valueString value='[&#39;Negative&#39;, &#39;Positive&#39;]'/>
    </extension>
    
    <text>
      <status value="generated"/>
      <div xmlns="http://www.w3.org/1999/xhtml">2012-01-17: Bilirub Ur Ql Strip = Negative </div>
    </text>
    <code>
      <coding>
        <system value="http://loinc.org"/>
        <code value="5770-3"/>
        <display value="Bilirub Ur Ql Strip"/>
      </coding>
      <text value="Bilirub Ur Ql Strip"/>
    </code>
    <valueString value="Negative"/>
    
    <effectiveDateTime value="2012-01-17"/>
    <status value="final"/>
    <subject>
      <reference value="Patient/8888804"/>
    </subject>
  </Observation>
  
  </resource>
  <request>
    <method value="POST"/>
    <url value="Observation/3382-lab"/>
  </request>
</entry>
<entry>
  <resource>
    
    
  <Observation>
  <id value="3383-lab"/>
    <text>
      <status value="generated"/>
      <div xmlns="http://www.w3.org/1999/xhtml">2012-01-17: Glucose Ur Strip-mCnc = 0 mg/dL</div>
    </text>
    <code>
      <coding>
        <system value="http://loinc.org"/>
        <code value="5792-7"/>
        <display value="Glucose Ur Strip-mCnc"/>
      </coding>
      <text value="Glucose Ur Strip-mCnc"/>
    </code>
    <valueQuantity>
      <value value="0.0"/>
      <unit value="mg/dL"/>
      <system value="http://unitsofmeasure.org" />
      <code value=""/>
    </valueQuantity>
    
    <effectiveDateTime value="2012-01-17"/>
    <status value="final"/>
    <subject>
      <reference value="Patient/8888804"/>
    </subject>
  </Observation>
  
  </resource>
  <request>
    <method value="POST"/>
    <url value="Observation/3383-lab"/>
  </request>
</entry>
<entry>
  <resource>
    
    
  <Observation>
  <id value="3384-lab"/>
    <extension url="http://fhir-registry.smarthealthit.org/StructureDefinition/labs#value-range" >
        <valueString value='[&#39;Negative&#39;, &#39;Positive&#39;]'/>
    </extension>
    
    <text>
      <status value="generated"/>
      <div xmlns="http://www.w3.org/1999/xhtml">2012-01-17: Ketones Ur Ql = Negative </div>
    </text>
    <code>
      <coding>
        <system value="http://loinc.org"/>
        <code value="33903-6"/>
        <display value="Ketones Ur Ql"/>
      </coding>
      <text value="Ketones Ur Ql"/>
    </code>
    <valueString value="Negative"/>
    
    <effectiveDateTime value="2012-01-17"/>
    <status value="final"/>
    <subject>
      <reference value="Patient/8888804"/>
    </subject>
  </Observation>
  
  </resource>
  <request>
    <method value="POST"/>
    <url value="Observation/3384-lab"/>
  </request>
</entry>
<entry>
  <resource>
    
    
  <Observation>
  <id value="3385-lab"/>
    <extension url="http://fhir-registry.smarthealthit.org/StructureDefinition/labs#value-range" >
        <valueString value='[&#39;Negative&#39;, &#39;Positive&#39;]'/>
    </extension>
    
    <text>
      <status value="generated"/>
      <div xmlns="http://www.w3.org/1999/xhtml">2012-01-17: Leukocyte esterase Ur Ql Strip = Negative </div>
    </text>
    <code>
      <coding>
        <system value="http://loinc.org"/>
        <code value="5799-2"/>
        <display value="Leukocyte esterase Ur Ql Strip"/>
      </coding>
      <text value="Leukocyte esterase Ur Ql Strip"/>
    </code>
    <valueString value="Negative"/>
    
    <effectiveDateTime value="2012-01-17"/>
    <status value="final"/>
    <subject>
      <reference value="Patient/8888804"/>
    </subject>
  </Observation>
  
  </resource>
  <request>
    <method value="POST"/>
    <url value="Observation/3385-lab"/>
  </request>
</entry>
<entry>
  <resource>
    
    
  <Observation>
  <id value="3386-lab"/>
    <extension url="http://fhir-registry.smarthealthit.org/StructureDefinition/labs#value-range" >
        <valueString value='[&#39;Negative&#39;, &#39;Positive&#39;]'/>
    </extension>
    
    <text>
      <status value="generated"/>
      <div xmlns="http://www.w3.org/1999/xhtml">2012-01-17: Nitrite Ur Ql Strip = Negative </div>
    </text>
    <code>
      <coding>
        <system value="http://loinc.org"/>
        <code value="5802-4"/>
        <display value="Nitrite Ur Ql Strip"/>
      </coding>
      <text value="Nitrite Ur Ql Strip"/>
    </code>
    <valueString value="Negative"/>
    
    <effectiveDateTime value="2012-01-17"/>
    <status value="final"/>
    <subject>
      <reference value="Patient/8888804"/>
    </subject>
  </Observation>
  
  </resource>
  <request>
    <method value="POST"/>
    <url value="Observation/3386-lab"/>
  </request>
</entry>
<entry>
  <resource>
    
    
  <Observation>
  <id value="3387-lab"/>
    <extension url="http://fhir-registry.smarthealthit.org/StructureDefinition/labs#value-range" >
        <valueString value='[&#39;Negative&#39;, &#39;Trace&#39;, &#39;Positive&#39;]'/>
    </extension>
    
    <text>
      <status value="generated"/>
      <div xmlns="http://www.w3.org/1999/xhtml">2012-01-17: Hgb Ur Ql Strip = Trace </div>
    </text>
    <code>
      <coding>
        <system value="http://loinc.org"/>
        <code value="5794-3"/>
        <display value="Hgb Ur Ql Strip"/>
      </coding>
      <text value="Hgb Ur Ql Strip"/>
    </code>
    <valueString value="Trace"/>
    
    <effectiveDateTime value="2012-01-17"/>
    <status value="final"/>
    <subject>
      <reference value="Patient/8888804"/>
    </subject>
  </Observation>
  
  </resource>
  <request>
    <method value="POST"/>
    <url value="Observation/3387-lab"/>
  </request>
</entry>
<entry>
  <resource>
    
    
  <Observation>
  <id value="3388-lab"/>
    <text>
      <status value="generated"/>
      <div xmlns="http://www.w3.org/1999/xhtml">2012-01-17: pH Ur Strip = 6 [pH]</div>
    </text>
    <code>
      <coding>
        <system value="http://loinc.org"/>
        <code value="5803-2"/>
        <display value="pH Ur Strip"/>
      </coding>
      <text value="pH Ur Strip"/>
    </code>
    <valueQuantity>
      <value value="6.0"/>
      <unit value="[pH]"/>
      <system value="http://unitsofmeasure.org" />
      <code value=""/>
    </valueQuantity>
    
    <effectiveDateTime value="2012-01-17"/>
    <status value="final"/>
    <subject>
      <reference value="Patient/8888804"/>
    </subject>
  </Observation>
  
  </resource>
  <request>
    <method value="POST"/>
    <url value="Observation/3388-lab"/>
  </request>
</entry>
<entry>
  <resource>
    
    
  <Observation>
  <id value="3389-lab"/>
    <text>
      <status value="generated"/>
      <div xmlns="http://www.w3.org/1999/xhtml">2012-01-17: Prot Ur Strip-mCnc = 0 mg/dL</div>
    </text>
    <code>
      <coding>
        <system value="http://loinc.org"/>
        <code value="5804-0"/>
        <display value="Prot Ur Strip-mCnc"/>
      </coding>
      <text value="Prot Ur Strip-mCnc"/>
    </code>
    <valueQuantity>
      <value value="0.0"/>
      <unit value="mg/dL"/>
      <system value="http://unitsofmeasure.org" />
      <code value=""/>
    </valueQuantity>
    
    <effectiveDateTime value="2012-01-17"/>
    <status value="final"/>
    <subject>
      <reference value="Patient/8888804"/>
    </subject>
  </Observation>
  
  </resource>
  <request>
    <method value="POST"/>
    <url value="Observation/3389-lab"/>
  </request>
</entry>
<entry>
  <resource>
    
    
  <Observation>
  <id value="3390-lab"/>
    <text>
      <status value="generated"/>
      <div xmlns="http://www.w3.org/1999/xhtml">2012-01-17: Sp Gr Ur Strip = 1.025 </div>
    </text>
    <code>
      <coding>
        <system value="http://loinc.org"/>
        <code value="5811-5"/>
        <display value="Sp Gr Ur Strip"/>
      </coding>
      <text value="Sp Gr Ur Strip"/>
    </code>
    <valueQuantity>
      <value value="1.025"/>
      <unit value=""/>
      <system value="http://unitsofmeasure.org" />
      <code value=""/>
    </valueQuantity>
    
    <effectiveDateTime value="2012-01-17"/>
    <status value="final"/>
    <subject>
      <reference value="Patient/8888804"/>
    </subject>
  </Observation>
  
  </resource>
  <request>
    <method value="POST"/>
    <url value="Observation/3390-lab"/>
  </request>
</entry>
<entry>
  <resource>
    
    
  <Observation>
  <id value="3391-lab"/>
    <text>
      <status value="generated"/>
      <div xmlns="http://www.w3.org/1999/xhtml">2010-06-04: Hct VFr Bld Auto = 46.9 %</div>
    </text>
    <code>
      <coding>
        <system value="http://loinc.org"/>
        <code value="4544-3"/>
        <display value="Hct VFr Bld Auto"/>
      </coding>
      <text value="Hct VFr Bld Auto"/>
    </code>
    <valueQuantity>
      <value value="46.9"/>
      <unit value="%"/>
      <system value="http://unitsofmeasure.org" />
      <code value=""/>
    </valueQuantity>
    
    <effectiveDateTime value="2010-06-04"/>
    <status value="final"/>
    <subject>
      <reference value="Patient/8888804"/>
    </subject>
  </Observation>
  
  </resource>
  <request>
    <method value="POST"/>
    <url value="Observation/3391-lab"/>
  </request>
</entry>
<entry>
  <resource>
    
    
  <Observation>
  <id value="3392-lab"/>
    <text>
      <status value="generated"/>
      <div xmlns="http://www.w3.org/1999/xhtml">2010-06-04: RBC # Bld Auto = 4.18 10*6/uL</div>
    </text>
    <code>
      <coding>
        <system value="http://loinc.org"/>
        <code value="789-8"/>
        <display value="RBC # Bld Auto"/>
      </coding>
      <text value="RBC # Bld Auto"/>
    </code>
    <valueQuantity>
      <value value="4.18"/>
      <unit value="10*6/uL"/>
      <system value="http://unitsofmeasure.org" />
      <code value=""/>
    </valueQuantity>
    
    <effectiveDateTime value="2010-06-04"/>
    <status value="final"/>
    <subject>
      <reference value="Patient/8888804"/>
    </subject>
  </Observation>
  
  </resource>
  <request>
    <method value="POST"/>
    <url value="Observation/3392-lab"/>
  </request>
</entry>
<entry>
  <resource>
    
    
  <Observation>
  <id value="3393-lab"/>
    <text>
      <status value="generated"/>
      <div xmlns="http://www.w3.org/1999/xhtml">2010-06-04: MCV RBC = 88 fL</div>
    </text>
    <code>
      <coding>
        <system value="http://loinc.org"/>
        <code value="30428-7"/>
        <display value="MCV RBC"/>
      </coding>
      <text value="MCV RBC"/>
    </code>
    <valueQuantity>
      <value value="88.0"/>
      <unit value="fL"/>
      <system value="http://unitsofmeasure.org" />
      <code value=""/>
    </valueQuantity>
    
    <effectiveDateTime value="2010-06-04"/>
    <status value="final"/>
    <subject>
      <reference value="Patient/8888804"/>
    </subject>
  </Observation>
  
  </resource>
  <request>
    <method value="POST"/>
    <url value="Observation/3393-lab"/>
  </request>
</entry>
<entry>
  <resource>
    
    
  <Observation>
  <id value="3394-lab"/>
    <text>
      <status value="generated"/>
      <div xmlns="http://www.w3.org/1999/xhtml">2010-06-04: MCH RBC Qn Auto = 28 pg</div>
    </text>
    <code>
      <coding>
        <system value="http://loinc.org"/>
        <code value="785-6"/>
        <display value="MCH RBC Qn Auto"/>
      </coding>
      <text value="MCH RBC Qn Auto"/>
    </code>
    <valueQuantity>
      <value value="28.0"/>
      <unit value="pg"/>
      <system value="http://unitsofmeasure.org" />
      <code value=""/>
    </valueQuantity>
    
    <effectiveDateTime value="2010-06-04"/>
    <status value="final"/>
    <subject>
      <reference value="Patient/8888804"/>
    </subject>
  </Observation>
  
  </resource>
  <request>
    <method value="POST"/>
    <url value="Observation/3394-lab"/>
  </request>
</entry>
<entry>
  <resource>
    
    
  <Observation>
  <id value="3395-lab"/>
    <text>
      <status value="generated"/>
      <div xmlns="http://www.w3.org/1999/xhtml">2010-06-04: MCHC RBC Auto-mCnc = 30 g/dL</div>
    </text>
    <code>
      <coding>
        <system value="http://loinc.org"/>
        <code value="786-4"/>
        <display value="MCHC RBC Auto-mCnc"/>
      </coding>
      <text value="MCHC RBC Auto-mCnc"/>
    </code>
    <valueQuantity>
      <value value="30.0"/>
      <unit value="g/dL"/>
      <system value="http://unitsofmeasure.org" />
      <code value=""/>
    </valueQuantity>
    
    <effectiveDateTime value="2010-06-04"/>
    <status value="final"/>
    <subject>
      <reference value="Patient/8888804"/>
    </subject>
  </Observation>
  
  </resource>
  <request>
    <method value="POST"/>
    <url value="Observation/3395-lab"/>
  </request>
</entry>
<entry>
  <resource>
    
    
  <Observation>
  <id value="3396-lab"/>
    <text>
      <status value="generated"/>
      <div xmlns="http://www.w3.org/1999/xhtml">2010-06-04: RDW RBC-Rto = 14.6 %</div>
    </text>
    <code>
      <coding>
        <system value="http://loinc.org"/>
        <code value="30385-9"/>
        <display value="RDW RBC-Rto"/>
      </coding>
      <text value="RDW RBC-Rto"/>
    </code>
    <valueQuantity>
      <value value="14.6"/>
      <unit value="%"/>
      <system value="http://unitsofmeasure.org" />
      <code value=""/>
    </valueQuantity>
    
    <effectiveDateTime value="2010-06-04"/>
    <status value="final"/>
    <subject>
      <reference value="Patient/8888804"/>
    </subject>
  </Observation>
  
  </resource>
  <request>
    <method value="POST"/>
    <url value="Observation/3396-lab"/>
  </request>
</entry>
<entry>
  <resource>
    
    
  <Observation>
  <id value="3397-lab"/>
    <text>
      <status value="generated"/>
      <div xmlns="http://www.w3.org/1999/xhtml">2010-06-04: WBC # Bld = 7.1 10*3/uL</div>
    </text>
    <code>
      <coding>
        <system value="http://loinc.org"/>
        <code value="26464-8"/>
        <display value="WBC # Bld"/>
      </coding>
      <text value="WBC # Bld"/>
    </code>
    <valueQuantity>
      <value value="7.1"/>
      <unit value="10*3/uL"/>
      <system value="http://unitsofmeasure.org" />
      <code value=""/>
    </valueQuantity>
    
    <effectiveDateTime value="2010-06-04"/>
    <status value="final"/>
    <subject>
      <reference value="Patient/8888804"/>
    </subject>
  </Observation>
  
  </resource>
  <request>
    <method value="POST"/>
    <url value="Observation/3397-lab"/>
  </request>
</entry>
<entry>
  <resource>
    
    
  <Observation>
  <id value="3398-lab"/>
    <text>
      <status value="generated"/>
      <div xmlns="http://www.w3.org/1999/xhtml">2010-06-04: Neutrophils NFr Bld Auto = 54 %</div>
    </text>
    <code>
      <coding>
        <system value="http://loinc.org"/>
        <code value="770-8"/>
        <display value="Neutrophils NFr Bld Auto"/>
      </coding>
      <text value="Neutrophils NFr Bld Auto"/>
    </code>
    <valueQuantity>
      <value value="54.0"/>
      <unit value="%"/>
      <system value="http://unitsofmeasure.org" />
      <code value=""/>
    </valueQuantity>
    
    <effectiveDateTime value="2010-06-04"/>
    <status value="final"/>
    <subject>
      <reference value="Patient/8888804"/>
    </subject>
  </Observation>
  
  </resource>
  <request>
    <method value="POST"/>
    <url value="Observation/3398-lab"/>
  </request>
</entry>
<entry>
  <resource>
    
    
  <Observation>
  <id value="3399-lab"/>
    <text>
      <status value="generated"/>
      <div xmlns="http://www.w3.org/1999/xhtml">2010-06-04: Lymphocytes NFr Bld = 36 %</div>
    </text>
    <code>
      <coding>
        <system value="http://loinc.org"/>
        <code value="26478-8"/>
        <display value="Lymphocytes NFr Bld"/>
      </coding>
      <text value="Lymphocytes NFr Bld"/>
    </code>
    <valueQuantity>
      <value value="36.0"/>
      <unit value="%"/>
      <system value="http://unitsofmeasure.org" />
      <code value=""/>
    </valueQuantity>
    
    <effectiveDateTime value="2010-06-04"/>
    <status value="final"/>
    <subject>
      <reference value="Patient/8888804"/>
    </subject>
  </Observation>
  
  </resource>
  <request>
    <method value="POST"/>
    <url value="Observation/3399-lab"/>
  </request>
</entry>
<entry>
  <resource>
    
    
  <Observation>
  <id value="3400-lab"/>
    <text>
      <status value="generated"/>
      <div xmlns="http://www.w3.org/1999/xhtml">2010-06-04: Basophils NFr Bld = 1 %</div>
    </text>
    <code>
      <coding>
        <system value="http://loinc.org"/>
        <code value="30180-4"/>
        <display value="Basophils NFr Bld"/>
      </coding>
      <text value="Basophils NFr Bld"/>
    </code>
    <valueQuantity>
      <value value="1.0"/>
      <unit value="%"/>
      <system value="http://unitsofmeasure.org" />
      <code value=""/>
    </valueQuantity>
    
    <effectiveDateTime value="2010-06-04"/>
    <status value="final"/>
    <subject>
      <reference value="Patient/8888804"/>
    </subject>
  </Observation>
  
  </resource>
  <request>
    <method value="POST"/>
    <url value="Observation/3400-lab"/>
  </request>
</entry>
<entry>
  <resource>
    
    
  <Observation>
  <id value="3401-lab"/>
    <text>
      <status value="generated"/>
      <div xmlns="http://www.w3.org/1999/xhtml">2010-06-04: Eosinophil NFr Bld = 4 %</div>
    </text>
    <code>
      <coding>
        <system value="http://loinc.org"/>
        <code value="26450-7"/>
        <display value="Eosinophil NFr Bld"/>
      </coding>
      <text value="Eosinophil NFr Bld"/>
    </code>
    <valueQuantity>
      <value value="4.0"/>
      <unit value="%"/>
      <system value="http://unitsofmeasure.org" />
      <code value=""/>
    </valueQuantity>
    
    <effectiveDateTime value="2010-06-04"/>
    <status value="final"/>
    <subject>
      <reference value="Patient/8888804"/>
    </subject>
  </Observation>
  
  </resource>
  <request>
    <method value="POST"/>
    <url value="Observation/3401-lab"/>
  </request>
</entry>
<entry>
  <resource>
    
    
  <Observation>
  <id value="3402-lab"/>
    <text>
      <status value="generated"/>
      <div xmlns="http://www.w3.org/1999/xhtml">2010-06-04: Monocytes NFr Bld = 6 %</div>
    </text>
    <code>
      <coding>
        <system value="http://loinc.org"/>
        <code value="26485-3"/>
        <display value="Monocytes NFr Bld"/>
      </coding>
      <text value="Monocytes NFr Bld"/>
    </code>
    <valueQuantity>
      <value value="6.0"/>
      <unit value="%"/>
      <system value="http://unitsofmeasure.org" />
      <code value=""/>
    </valueQuantity>
    
    <effectiveDateTime value="2010-06-04"/>
    <status value="final"/>
    <subject>
      <reference value="Patient/8888804"/>
    </subject>
  </Observation>
  
  </resource>
  <request>
    <method value="POST"/>
    <url value="Observation/3402-lab"/>
  </request>
</entry>
<entry>
  <resource>
    
    
  <Observation>
  <id value="3403-lab"/>
    <text>
      <status value="generated"/>
      <div xmlns="http://www.w3.org/1999/xhtml">2010-06-04: Platelet # Bld = 392 10*3/uL</div>
    </text>
    <code>
      <coding>
        <system value="http://loinc.org"/>
        <code value="26515-7"/>
        <display value="Platelet # Bld"/>
      </coding>
      <text value="Platelet # Bld"/>
    </code>
    <valueQuantity>
      <value value="392.0"/>
      <unit value="10*3/uL"/>
      <system value="http://unitsofmeasure.org" />
      <code value=""/>
    </valueQuantity>
    
    <effectiveDateTime value="2010-06-04"/>
    <status value="final"/>
    <subject>
      <reference value="Patient/8888804"/>
    </subject>
  </Observation>
  
  </resource>
  <request>
    <method value="POST"/>
    <url value="Observation/3403-lab"/>
  </request>
</entry>
<entry>
  <resource>
    
    
  <Observation>
  <id value="3404-lab"/>
    <text>
      <status value="generated"/>
      <div xmlns="http://www.w3.org/1999/xhtml">2010-06-04: Glucose SerPl-mCnc = 94 mg/dL</div>
    </text>
    <code>
      <coding>
        <system value="http://loinc.org"/>
        <code value="2345-7"/>
        <display value="Glucose SerPl-mCnc"/>
      </coding>
      <text value="Glucose SerPl-mCnc"/>
    </code>
    <valueQuantity>
      <value value="94.0"/>
      <unit value="mg/dL"/>
      <system value="http://unitsofmeasure.org" />
      <code value=""/>
    </valueQuantity>
    
    <effectiveDateTime value="2010-06-04"/>
    <status value="final"/>
    <subject>
      <reference value="Patient/8888804"/>
    </subject>
  </Observation>
  
  </resource>
  <request>
    <method value="POST"/>
    <url value="Observation/3404-lab"/>
  </request>
</entry>
<entry>
  <resource>
    
    
  <Observation>
  <id value="3405-lab"/>
    <text>
      <status value="generated"/>
      <div xmlns="http://www.w3.org/1999/xhtml">2010-06-04: Calcium SerPl-mCnc = 9.6 mg/dL</div>
    </text>
    <code>
      <coding>
        <system value="http://loinc.org"/>
        <code value="17861-6"/>
        <display value="Calcium SerPl-mCnc"/>
      </coding>
      <text value="Calcium SerPl-mCnc"/>
    </code>
    <valueQuantity>
      <value value="9.6"/>
      <unit value="mg/dL"/>
      <system value="http://unitsofmeasure.org" />
      <code value=""/>
    </valueQuantity>
    
    <effectiveDateTime value="2010-06-04"/>
    <status value="final"/>
    <subject>
      <reference value="Patient/8888804"/>
    </subject>
  </Observation>
  
  </resource>
  <request>
    <method value="POST"/>
    <url value="Observation/3405-lab"/>
  </request>
</entry>
<entry>
  <resource>
    
    
  <Observation>
  <id value="3406-lab"/>
    <text>
      <status value="generated"/>
      <div xmlns="http://www.w3.org/1999/xhtml">2010-06-04: Prot SerPl-mCnc = 6.5 g/dL</div>
    </text>
    <code>
      <coding>
        <system value="http://loinc.org"/>
        <code value="2885-2"/>
        <display value="Prot SerPl-mCnc"/>
      </coding>
      <text value="Prot SerPl-mCnc"/>
    </code>
    <valueQuantity>
      <value value="6.5"/>
      <unit value="g/dL"/>
      <system value="http://unitsofmeasure.org" />
      <code value=""/>
    </valueQuantity>
    
    <effectiveDateTime value="2010-06-04"/>
    <status value="final"/>
    <subject>
      <reference value="Patient/8888804"/>
    </subject>
  </Observation>
  
  </resource>
  <request>
    <method value="POST"/>
    <url value="Observation/3406-lab"/>
  </request>
</entry>
<entry>
  <resource>
    
    
  <Observation>
  <id value="3407-lab"/>
    <text>
      <status value="generated"/>
      <div xmlns="http://www.w3.org/1999/xhtml">2010-06-04: Albumin SerPl-mCnc = 4.2 g/dL</div>
    </text>
    <code>
      <coding>
        <system value="http://loinc.org"/>
        <code value="1751-7"/>
        <display value="Albumin SerPl-mCnc"/>
      </coding>
      <text value="Albumin SerPl-mCnc"/>
    </code>
    <valueQuantity>
      <value value="4.2"/>
      <unit value="g/dL"/>
      <system value="http://unitsofmeasure.org" />
      <code value=""/>
    </valueQuantity>
    
    <effectiveDateTime value="2010-06-04"/>
    <status value="final"/>
    <subject>
      <reference value="Patient/8888804"/>
    </subject>
  </Observation>
  
  </resource>
  <request>
    <method value="POST"/>
    <url value="Observation/3407-lab"/>
  </request>
</entry>
<entry>
  <resource>
    
    
  <Observation>
  <id value="3408-lab"/>
    <text>
      <status value="generated"/>
      <div xmlns="http://www.w3.org/1999/xhtml">2010-06-04: Sodium SerPl-sCnc = 139 mmol/L</div>
    </text>
    <code>
      <coding>
        <system value="http://loinc.org"/>
        <code value="2951-2"/>
        <display value="Sodium SerPl-sCnc"/>
      </coding>
      <text value="Sodium SerPl-sCnc"/>
    </code>
    <valueQuantity>
      <value value="139.0"/>
      <unit value="mmol/L"/>
      <system value="http://unitsofmeasure.org" />
      <code value=""/>
    </valueQuantity>
    
    <effectiveDateTime value="2010-06-04"/>
    <status value="final"/>
    <subject>
      <reference value="Patient/8888804"/>
    </subject>
  </Observation>
  
  </resource>
  <request>
    <method value="POST"/>
    <url value="Observation/3408-lab"/>
  </request>
</entry>
<entry>
  <resource>
    
    
  <Observation>
  <id value="3409-lab"/>
    <text>
      <status value="generated"/>
      <div xmlns="http://www.w3.org/1999/xhtml">2010-06-04: Potassium SerPl-sCnc = 3.8 mmol/L</div>
    </text>
    <code>
      <coding>
        <system value="http://loinc.org"/>
        <code value="2823-3"/>
        <display value="Potassium SerPl-sCnc"/>
      </coding>
      <text value="Potassium SerPl-sCnc"/>
    </code>
    <valueQuantity>
      <value value="3.8"/>
      <unit value="mmol/L"/>
      <system value="http://unitsofmeasure.org" />
      <code value=""/>
    </valueQuantity>
    
    <effectiveDateTime value="2010-06-04"/>
    <status value="final"/>
    <subject>
      <reference value="Patient/8888804"/>
    </subject>
  </Observation>
  
  </resource>
  <request>
    <method value="POST"/>
    <url value="Observation/3409-lab"/>
  </request>
</entry>
<entry>
  <resource>
    
    
  <Observation>
  <id value="3410-lab"/>
    <text>
      <status value="generated"/>
      <div xmlns="http://www.w3.org/1999/xhtml">2010-06-04: CO2 SerPl-sCnc = 22 mmol/L</div>
    </text>
    <code>
      <coding>
        <system value="http://loinc.org"/>
        <code value="2028-9"/>
        <display value="CO2 SerPl-sCnc"/>
      </coding>
      <text value="CO2 SerPl-sCnc"/>
    </code>
    <valueQuantity>
      <value value="22.0"/>
      <unit value="mmol/L"/>
      <system value="http://unitsofmeasure.org" />
      <code value=""/>
    </valueQuantity>
    
    <effectiveDateTime value="2010-06-04"/>
    <status value="final"/>
    <subject>
      <reference value="Patient/8888804"/>
    </subject>
  </Observation>
  
  </resource>
  <request>
    <method value="POST"/>
    <url value="Observation/3410-lab"/>
  </request>
</entry>
<entry>
  <resource>
    
    
  <Observation>
  <id value="3411-lab"/>
    <text>
      <status value="generated"/>
      <div xmlns="http://www.w3.org/1999/xhtml">2010-06-04: Chloride SerPl-sCnc = 102 mmol/L</div>
    </text>
    <code>
      <coding>
        <system value="http://loinc.org"/>
        <code value="2075-0"/>
        <display value="Chloride SerPl-sCnc"/>
      </coding>
      <text value="Chloride SerPl-sCnc"/>
    </code>
    <valueQuantity>
      <value value="102.0"/>
      <unit value="mmol/L"/>
      <system value="http://unitsofmeasure.org" />
      <code value=""/>
    </valueQuantity>
    
    <effectiveDateTime value="2010-06-04"/>
    <status value="final"/>
    <subject>
      <reference value="Patient/8888804"/>
    </subject>
  </Observation>
  
  </resource>
  <request>
    <method value="POST"/>
    <url value="Observation/3411-lab"/>
  </request>
</entry>
<entry>
  <resource>
    
    
  <Observation>
  <id value="3412-lab"/>
    <text>
      <status value="generated"/>
      <div xmlns="http://www.w3.org/1999/xhtml">2010-06-04: BUN SerPl-mCnc = 18 mg/dL</div>
    </text>
    <code>
      <coding>
        <system value="http://loinc.org"/>
        <code value="3094-0"/>
        <display value="BUN SerPl-mCnc"/>
      </coding>
      <text value="BUN SerPl-mCnc"/>
    </code>
    <valueQuantity>
      <value value="18.0"/>
      <unit value="mg/dL"/>
      <system value="http://unitsofmeasure.org" />
      <code value=""/>
    </valueQuantity>
    
    <effectiveDateTime value="2010-06-04"/>
    <status value="final"/>
    <subject>
      <reference value="Patient/8888804"/>
    </subject>
  </Observation>
  
  </resource>
  <request>
    <method value="POST"/>
    <url value="Observation/3412-lab"/>
  </request>
</entry>
<entry>
  <resource>
    
    
  <Observation>
  <id value="3413-lab"/>
    <text>
      <status value="generated"/>
      <div xmlns="http://www.w3.org/1999/xhtml">2010-06-04: Creat SerPl-mCnc = 0.84 mg/dL</div>
    </text>
    <code>
      <coding>
        <system value="http://loinc.org"/>
        <code value="2160-0"/>
        <display value="Creat SerPl-mCnc"/>
      </coding>
      <text value="Creat SerPl-mCnc"/>
    </code>
    <valueQuantity>
      <value value="0.84"/>
      <unit value="mg/dL"/>
      <system value="http://unitsofmeasure.org" />
      <code value=""/>
    </valueQuantity>
    
    <effectiveDateTime value="2010-06-04"/>
    <status value="final"/>
    <subject>
      <reference value="Patient/8888804"/>
    </subject>
  </Observation>
  
  </resource>
  <request>
    <method value="POST"/>
    <url value="Observation/3413-lab"/>
  </request>
</entry>
<entry>
  <resource>
    
    
  <Observation>
  <id value="3414-lab"/>
    <text>
      <status value="generated"/>
      <div xmlns="http://www.w3.org/1999/xhtml">2010-06-04: ALP SerPl-cCnc = 57 U/L</div>
    </text>
    <code>
      <coding>
        <system value="http://loinc.org"/>
        <code value="6768-6"/>
        <display value="ALP SerPl-cCnc"/>
      </coding>
      <text value="ALP SerPl-cCnc"/>
    </code>
    <valueQuantity>
      <value value="57.0"/>
      <unit value="U/L"/>
      <system value="http://unitsofmeasure.org" />
      <code value=""/>
    </valueQuantity>
    
    <effectiveDateTime value="2010-06-04"/>
    <status value="final"/>
    <subject>
      <reference value="Patient/8888804"/>
    </subject>
  </Observation>
  
  </resource>
  <request>
    <method value="POST"/>
    <url value="Observation/3414-lab"/>
  </request>
</entry>
<entry>
  <resource>
    
    
  <Observation>
  <id value="3415-lab"/>
    <text>
      <status value="generated"/>
      <div xmlns="http://www.w3.org/1999/xhtml">2010-06-04: ALT SerPl-cCnc = 46 U/L</div>
    </text>
    <code>
      <coding>
        <system value="http://loinc.org"/>
        <code value="1742-6"/>
        <display value="ALT SerPl-cCnc"/>
      </coding>
      <text value="ALT SerPl-cCnc"/>
    </code>
    <valueQuantity>
      <value value="46.0"/>
      <unit value="U/L"/>
      <system value="http://unitsofmeasure.org" />
      <code value=""/>
    </valueQuantity>
    
    <effectiveDateTime value="2010-06-04"/>
    <status value="final"/>
    <subject>
      <reference value="Patient/8888804"/>
    </subject>
  </Observation>
  
  </resource>
  <request>
    <method value="POST"/>
    <url value="Observation/3415-lab"/>
  </request>
</entry>
<entry>
  <resource>
    
    
  <Observation>
  <id value="3416-lab"/>
    <text>
      <status value="generated"/>
      <div xmlns="http://www.w3.org/1999/xhtml">2010-06-04: AST SerPl-cCnc = 35 U/L</div>
    </text>
    <code>
      <coding>
        <system value="http://loinc.org"/>
        <code value="1920-8"/>
        <display value="AST SerPl-cCnc"/>
      </coding>
      <text value="AST SerPl-cCnc"/>
    </code>
    <valueQuantity>
      <value value="35.0"/>
      <unit value="U/L"/>
      <system value="http://unitsofmeasure.org" />
      <code value=""/>
    </valueQuantity>
    
    <effectiveDateTime value="2010-06-04"/>
    <status value="final"/>
    <subject>
      <reference value="Patient/8888804"/>
    </subject>
  </Observation>
  
  </resource>
  <request>
    <method value="POST"/>
    <url value="Observation/3416-lab"/>
  </request>
</entry>
<entry>
  <resource>
    
    
  <Observation>
  <id value="3417-lab"/>
    <text>
      <status value="generated"/>
      <div xmlns="http://www.w3.org/1999/xhtml">2010-06-04: Bilirub SerPl-mCnc = 0.4 mg/dL</div>
    </text>
    <code>
      <coding>
        <system value="http://loinc.org"/>
        <code value="1975-2"/>
        <display value="Bilirub SerPl-mCnc"/>
      </coding>
      <text value="Bilirub SerPl-mCnc"/>
    </code>
    <valueQuantity>
      <value value="0.4"/>
      <unit value="mg/dL"/>
      <system value="http://unitsofmeasure.org" />
      <code value=""/>
    </valueQuantity>
    
    <effectiveDateTime value="2010-06-04"/>
    <status value="final"/>
    <subject>
      <reference value="Patient/8888804"/>
    </subject>
  </Observation>
  
  </resource>
  <request>
    <method value="POST"/>
    <url value="Observation/3417-lab"/>
  </request>
</entry>
<entry>
  <resource>
    
    
  <Observation>
  <id value="3418-lab"/>
    <text>
      <status value="generated"/>
      <div xmlns="http://www.w3.org/1999/xhtml">2010-06-04: 25(OH)D3 SerPl-mCnc = 40 ng/mL</div>
    </text>
    <code>
      <coding>
        <system value="http://loinc.org"/>
        <code value="1989-3"/>
        <display value="25(OH)D3 SerPl-mCnc"/>
      </coding>
      <text value="25(OH)D3 SerPl-mCnc"/>
    </code>
    <valueQuantity>
      <value value="40.0"/>
      <unit value="ng/mL"/>
      <system value="http://unitsofmeasure.org" />
      <code value=""/>
    </valueQuantity>
    
    <effectiveDateTime value="2010-06-04"/>
    <status value="final"/>
    <subject>
      <reference value="Patient/8888804"/>
    </subject>
  </Observation>
  
  </resource>
  <request>
    <method value="POST"/>
    <url value="Observation/3418-lab"/>
  </request>
</entry>
<entry>
  <resource>
    
    
  <Observation>
  <id value="3419-lab"/>
    <text>
      <status value="generated"/>
      <div xmlns="http://www.w3.org/1999/xhtml">2010-06-04: PSA SerPl-mCnc = 1.52 ng/mL</div>
    </text>
    <code>
      <coding>
        <system value="http://loinc.org"/>
        <code value="2857-1"/>
        <display value="PSA SerPl-mCnc"/>
      </coding>
      <text value="PSA SerPl-mCnc"/>
    </code>
    <valueQuantity>
      <value value="1.52"/>
      <unit value="ng/mL"/>
      <system value="http://unitsofmeasure.org" />
      <code value=""/>
    </valueQuantity>
    
    <effectiveDateTime value="2010-06-04"/>
    <status value="final"/>
    <subject>
      <reference value="Patient/8888804"/>
    </subject>
  </Observation>
  
  </resource>
  <request>
    <method value="POST"/>
    <url value="Observation/3419-lab"/>
  </request>
</entry>
<entry>
  <resource>
    
    
  <Observation>
  <id value="3420-lab"/>
    <text>
      <status value="generated"/>
      <div xmlns="http://www.w3.org/1999/xhtml">2010-06-04: Appearance Ur = clear, gold </div>
    </text>
    <code>
      <coding>
        <system value="http://loinc.org"/>
        <code value="5767-9"/>
        <display value="Appearance Ur"/>
      </coding>
      <text value="Appearance Ur"/>
    </code>
    <valueString value="clear, gold"/>
    
    <effectiveDateTime value="2010-06-04"/>
    <status value="final"/>
    <subject>
      <reference value="Patient/8888804"/>
    </subject>
  </Observation>
  
  </resource>
  <request>
    <method value="POST"/>
    <url value="Observation/3420-lab"/>
  </request>
</entry>
<entry>
  <resource>
    
    
  <Observation>
  <id value="3421-lab"/>
    <extension url="http://fhir-registry.smarthealthit.org/StructureDefinition/labs#value-range" >
        <valueString value='[&#39;Negative&#39;, &#39;Positive&#39;]'/>
    </extension>
    
    <text>
      <status value="generated"/>
      <div xmlns="http://www.w3.org/1999/xhtml">2010-06-04: Bilirub Ur Ql Strip = Negative </div>
    </text>
    <code>
      <coding>
        <system value="http://loinc.org"/>
        <code value="5770-3"/>
        <display value="Bilirub Ur Ql Strip"/>
      </coding>
      <text value="Bilirub Ur Ql Strip"/>
    </code>
    <valueString value="Negative"/>
    
    <effectiveDateTime value="2010-06-04"/>
    <status value="final"/>
    <subject>
      <reference value="Patient/8888804"/>
    </subject>
  </Observation>
  
  </resource>
  <request>
    <method value="POST"/>
    <url value="Observation/3421-lab"/>
  </request>
</entry>
<entry>
  <resource>
    
    
  <Observation>
  <id value="3422-lab"/>
    <text>
      <status value="generated"/>
      <div xmlns="http://www.w3.org/1999/xhtml">2010-06-04: Glucose Ur Strip-mCnc = 0 mg/dL</div>
    </text>
    <code>
      <coding>
        <system value="http://loinc.org"/>
        <code value="5792-7"/>
        <display value="Glucose Ur Strip-mCnc"/>
      </coding>
      <text value="Glucose Ur Strip-mCnc"/>
    </code>
    <valueQuantity>
      <value value="0.0"/>
      <unit value="mg/dL"/>
      <system value="http://unitsofmeasure.org" />
      <code value=""/>
    </valueQuantity>
    
    <effectiveDateTime value="2010-06-04"/>
    <status value="final"/>
    <subject>
      <reference value="Patient/8888804"/>
    </subject>
  </Observation>
  
  </resource>
  <request>
    <method value="POST"/>
    <url value="Observation/3422-lab"/>
  </request>
</entry>
<entry>
  <resource>
    
    
  <Observation>
  <id value="3423-lab"/>
    <extension url="http://fhir-registry.smarthealthit.org/StructureDefinition/labs#value-range" >
        <valueString value='[&#39;Negative&#39;, &#39;Positive&#39;]'/>
    </extension>
    
    <text>
      <status value="generated"/>
      <div xmlns="http://www.w3.org/1999/xhtml">2010-06-04: Ketones Ur Ql = Negative </div>
    </text>
    <code>
      <coding>
        <system value="http://loinc.org"/>
        <code value="33903-6"/>
        <display value="Ketones Ur Ql"/>
      </coding>
      <text value="Ketones Ur Ql"/>
    </code>
    <valueString value="Negative"/>
    
    <effectiveDateTime value="2010-06-04"/>
    <status value="final"/>
    <subject>
      <reference value="Patient/8888804"/>
    </subject>
  </Observation>
  
  </resource>
  <request>
    <method value="POST"/>
    <url value="Observation/3423-lab"/>
  </request>
</entry>
<entry>
  <resource>
    
    
  <Observation>
  <id value="3424-lab"/>
    <extension url="http://fhir-registry.smarthealthit.org/StructureDefinition/labs#value-range" >
        <valueString value='[&#39;Negative&#39;, &#39;Positive&#39;]'/>
    </extension>
    
    <text>
      <status value="generated"/>
      <div xmlns="http://www.w3.org/1999/xhtml">2010-06-04: Leukocyte esterase Ur Ql Strip = Negative </div>
    </text>
    <code>
      <coding>
        <system value="http://loinc.org"/>
        <code value="5799-2"/>
        <display value="Leukocyte esterase Ur Ql Strip"/>
      </coding>
      <text value="Leukocyte esterase Ur Ql Strip"/>
    </code>
    <valueString value="Negative"/>
    
    <effectiveDateTime value="2010-06-04"/>
    <status value="final"/>
    <subject>
      <reference value="Patient/8888804"/>
    </subject>
  </Observation>
  
  </resource>
  <request>
    <method value="POST"/>
    <url value="Observation/3424-lab"/>
  </request>
</entry>
<entry>
  <resource>
    
    
  <Observation>
  <id value="3425-lab"/>
    <text>
      <status value="generated"/>
      <div xmlns="http://www.w3.org/1999/xhtml">2010-06-04: Microalbumin Ur-mCnc = 0.75 mg/dL</div>
    </text>
    <code>
      <coding>
        <system value="http://loinc.org"/>
        <code value="14957-5"/>
        <display value="Microalbumin Ur-mCnc"/>
      </coding>
      <text value="Microalbumin Ur-mCnc"/>
    </code>
    <valueQuantity>
      <value value="0.75"/>
      <unit value="mg/dL"/>
      <system value="http://unitsofmeasure.org" />
      <code value=""/>
    </valueQuantity>
    
    <effectiveDateTime value="2010-06-04"/>
    <status value="final"/>
    <subject>
      <reference value="Patient/8888804"/>
    </subject>
  </Observation>
  
  </resource>
  <request>
    <method value="POST"/>
    <url value="Observation/3425-lab"/>
  </request>
</entry>
<entry>
  <resource>
    
    
  <Observation>
  <id value="3426-lab"/>
    <extension url="http://fhir-registry.smarthealthit.org/StructureDefinition/labs#value-range" >
        <valueString value='[&#39;Negative&#39;, &#39;Positive&#39;]'/>
    </extension>
    
    <text>
      <status value="generated"/>
      <div xmlns="http://www.w3.org/1999/xhtml">2010-06-04: Nitrite Ur Ql Strip = Negative </div>
    </text>
    <code>
      <coding>
        <system value="http://loinc.org"/>
        <code value="5802-4"/>
        <display value="Nitrite Ur Ql Strip"/>
      </coding>
      <text value="Nitrite Ur Ql Strip"/>
    </code>
    <valueString value="Negative"/>
    
    <effectiveDateTime value="2010-06-04"/>
    <status value="final"/>
    <subject>
      <reference value="Patient/8888804"/>
    </subject>
  </Observation>
  
  </resource>
  <request>
    <method value="POST"/>
    <url value="Observation/3426-lab"/>
  </request>
</entry>
<entry>
  <resource>
    
    
  <Observation>
  <id value="3427-lab"/>
    <extension url="http://fhir-registry.smarthealthit.org/StructureDefinition/labs#value-range" >
        <valueString value='[&#39;Negative&#39;, &#39;Positive&#39;]'/>
    </extension>
    
    <text>
      <status value="generated"/>
      <div xmlns="http://www.w3.org/1999/xhtml">2010-06-04: Hgb Ur Ql Strip = Negative </div>
    </text>
    <code>
      <coding>
        <system value="http://loinc.org"/>
        <code value="5794-3"/>
        <display value="Hgb Ur Ql Strip"/>
      </coding>
      <text value="Hgb Ur Ql Strip"/>
    </code>
    <valueString value="Negative"/>
    
    <effectiveDateTime value="2010-06-04"/>
    <status value="final"/>
    <subject>
      <reference value="Patient/8888804"/>
    </subject>
  </Observation>
  
  </resource>
  <request>
    <method value="POST"/>
    <url value="Observation/3427-lab"/>
  </request>
</entry>
<entry>
  <resource>
    
    
  <Observation>
  <id value="3428-lab"/>
    <text>
      <status value="generated"/>
      <div xmlns="http://www.w3.org/1999/xhtml">2010-06-04: pH Ur Strip = 6 [pH]</div>
    </text>
    <code>
      <coding>
        <system value="http://loinc.org"/>
        <code value="5803-2"/>
        <display value="pH Ur Strip"/>
      </coding>
      <text value="pH Ur Strip"/>
    </code>
    <valueQuantity>
      <value value="6.0"/>
      <unit value="[pH]"/>
      <system value="http://unitsofmeasure.org" />
      <code value=""/>
    </valueQuantity>
    
    <effectiveDateTime value="2010-06-04"/>
    <status value="final"/>
    <subject>
      <reference value="Patient/8888804"/>
    </subject>
  </Observation>
  
  </resource>
  <request>
    <method value="POST"/>
    <url value="Observation/3428-lab"/>
  </request>
</entry>
<entry>
  <resource>
    
    
  <Observation>
  <id value="3429-lab"/>
    <text>
      <status value="generated"/>
      <div xmlns="http://www.w3.org/1999/xhtml">2010-06-04: Prot Ur Strip-mCnc = 0 mg/dL</div>
    </text>
    <code>
      <coding>
        <system value="http://loinc.org"/>
        <code value="5804-0"/>
        <display value="Prot Ur Strip-mCnc"/>
      </coding>
      <text value="Prot Ur Strip-mCnc"/>
    </code>
    <valueQuantity>
      <value value="0.0"/>
      <unit value="mg/dL"/>
      <system value="http://unitsofmeasure.org" />
      <code value=""/>
    </valueQuantity>
    
    <effectiveDateTime value="2010-06-04"/>
    <status value="final"/>
    <subject>
      <reference value="Patient/8888804"/>
    </subject>
  </Observation>
  
  </resource>
  <request>
    <method value="POST"/>
    <url value="Observation/3429-lab"/>
  </request>
</entry>
<entry>
  <resource>
    
    
  <Observation>
  <id value="3430-lab"/>
    <text>
      <status value="generated"/>
      <div xmlns="http://www.w3.org/1999/xhtml">2010-06-04: Sp Gr Ur Strip = 1.25 </div>
    </text>
    <code>
      <coding>
        <system value="http://loinc.org"/>
        <code value="5811-5"/>
        <display value="Sp Gr Ur Strip"/>
      </coding>
      <text value="Sp Gr Ur Strip"/>
    </code>
    <valueQuantity>
      <value value="1.25"/>
      <unit value=""/>
      <system value="http://unitsofmeasure.org" />
      <code value=""/>
    </valueQuantity>
    
    <effectiveDateTime value="2010-06-04"/>
    <status value="final"/>
    <subject>
      <reference value="Patient/8888804"/>
    </subject>
  </Observation>
  
  </resource>
  <request>
    <method value="POST"/>
    <url value="Observation/3430-lab"/>
  </request>
</entry>
<entry>
  <resource>
    
    
  <Observation>
  <id value="3431-lab"/>
    <text>
      <status value="generated"/>
      <div xmlns="http://www.w3.org/1999/xhtml">2012-11-09: Glucose SerPl-mCnc = 115 mg/dL</div>
    </text>
    <code>
      <coding>
        <system value="http://loinc.org"/>
        <code value="2345-7"/>
        <display value="Glucose SerPl-mCnc"/>
      </coding>
      <text value="Glucose SerPl-mCnc"/>
    </code>
    <valueQuantity>
      <value value="115.0"/>
      <unit value="mg/dL"/>
      <system value="http://unitsofmeasure.org" />
      <code value=""/>
    </valueQuantity>
    
    <effectiveDateTime value="2012-11-09"/>
    <status value="final"/>
    <subject>
      <reference value="Patient/8888804"/>
    </subject>
  </Observation>
  
  </resource>
  <request>
    <method value="POST"/>
    <url value="Observation/3431-lab"/>
  </request>
</entry>
<entry>
  <resource>
    
    
  <Observation>
  <id value="3432-lab"/>
    <text>
      <status value="generated"/>
      <div xmlns="http://www.w3.org/1999/xhtml">2012-11-09: Hgb A1c MFr Bld = 6.3 %</div>
    </text>
    <code>
      <coding>
        <system value="http://loinc.org"/>
        <code value="4548-4"/>
        <display value="Hgb A1c MFr Bld"/>
      </coding>
      <text value="Hgb A1c MFr Bld"/>
    </code>
    <valueQuantity>
      <value value="6.3"/>
      <unit value="%"/>
      <system value="http://unitsofmeasure.org" />
      <code value=""/>
    </valueQuantity>
    
    <effectiveDateTime value="2012-11-09"/>
    <status value="final"/>
    <subject>
      <reference value="Patient/8888804"/>
    </subject>
  </Observation>
  
  </resource>
  <request>
    <method value="POST"/>
    <url value="Observation/3432-lab"/>
  </request>
</entry>
<entry>
  <resource>
    
    
  <Observation>
  <id value="3433-lab"/>
    <text>
      <status value="generated"/>
      <div xmlns="http://www.w3.org/1999/xhtml">2012-11-09: Calcium SerPl-mCnc = 9 mg/dL</div>
    </text>
    <code>
      <coding>
        <system value="http://loinc.org"/>
        <code value="17861-6"/>
        <display value="Calcium SerPl-mCnc"/>
      </coding>
      <text value="Calcium SerPl-mCnc"/>
    </code>
    <valueQuantity>
      <value value="9.0"/>
      <unit value="mg/dL"/>
      <system value="http://unitsofmeasure.org" />
      <code value=""/>
    </valueQuantity>
    
    <effectiveDateTime value="2012-11-09"/>
    <status value="final"/>
    <subject>
      <reference value="Patient/8888804"/>
    </subject>
  </Observation>
  
  </resource>
  <request>
    <method value="POST"/>
    <url value="Observation/3433-lab"/>
  </request>
</entry>
<entry>
  <resource>
    
    
  <Observation>
  <id value="3434-lab"/>
    <text>
      <status value="generated"/>
      <div xmlns="http://www.w3.org/1999/xhtml">2012-11-09: Prot SerPl-mCnc = 7 g/dL</div>
    </text>
    <code>
      <coding>
        <system value="http://loinc.org"/>
        <code value="2885-2"/>
        <display value="Prot SerPl-mCnc"/>
      </coding>
      <text value="Prot SerPl-mCnc"/>
    </code>
    <valueQuantity>
      <value value="7.0"/>
      <unit value="g/dL"/>
      <system value="http://unitsofmeasure.org" />
      <code value=""/>
    </valueQuantity>
    
    <effectiveDateTime value="2012-11-09"/>
    <status value="final"/>
    <subject>
      <reference value="Patient/8888804"/>
    </subject>
  </Observation>
  
  </resource>
  <request>
    <method value="POST"/>
    <url value="Observation/3434-lab"/>
  </request>
</entry>
<entry>
  <resource>
    
    
  <Observation>
  <id value="3435-lab"/>
    <text>
      <status value="generated"/>
      <div xmlns="http://www.w3.org/1999/xhtml">2012-11-09: Albumin SerPl-mCnc = 4.3 g/dL</div>
    </text>
    <code>
      <coding>
        <system value="http://loinc.org"/>
        <code value="1751-7"/>
        <display value="Albumin SerPl-mCnc"/>
      </coding>
      <text value="Albumin SerPl-mCnc"/>
    </code>
    <valueQuantity>
      <value value="4.3"/>
      <unit value="g/dL"/>
      <system value="http://unitsofmeasure.org" />
      <code value=""/>
    </valueQuantity>
    
    <effectiveDateTime value="2012-11-09"/>
    <status value="final"/>
    <subject>
      <reference value="Patient/8888804"/>
    </subject>
  </Observation>
  
  </resource>
  <request>
    <method value="POST"/>
    <url value="Observation/3435-lab"/>
  </request>
</entry>
<entry>
  <resource>
    
    
  <Observation>
  <id value="3436-lab"/>
    <text>
      <status value="generated"/>
      <div xmlns="http://www.w3.org/1999/xhtml">2012-11-09: Sodium SerPl-sCnc = 139 mmol/L</div>
    </text>
    <code>
      <coding>
        <system value="http://loinc.org"/>
        <code value="2951-2"/>
        <display value="Sodium SerPl-sCnc"/>
      </coding>
      <text value="Sodium SerPl-sCnc"/>
    </code>
    <valueQuantity>
      <value value="139.0"/>
      <unit value="mmol/L"/>
      <system value="http://unitsofmeasure.org" />
      <code value=""/>
    </valueQuantity>
    
    <effectiveDateTime value="2012-11-09"/>
    <status value="final"/>
    <subject>
      <reference value="Patient/8888804"/>
    </subject>
  </Observation>
  
  </resource>
  <request>
    <method value="POST"/>
    <url value="Observation/3436-lab"/>
  </request>
</entry>
<entry>
  <resource>
    
    
  <Observation>
  <id value="3437-lab"/>
    <text>
      <status value="generated"/>
      <div xmlns="http://www.w3.org/1999/xhtml">2012-11-09: Potassium SerPl-sCnc = 3.9 mmol/L</div>
    </text>
    <code>
      <coding>
        <system value="http://loinc.org"/>
        <code value="2823-3"/>
        <display value="Potassium SerPl-sCnc"/>
      </coding>
      <text value="Potassium SerPl-sCnc"/>
    </code>
    <valueQuantity>
      <value value="3.9"/>
      <unit value="mmol/L"/>
      <system value="http://unitsofmeasure.org" />
      <code value=""/>
    </valueQuantity>
    
    <effectiveDateTime value="2012-11-09"/>
    <status value="final"/>
    <subject>
      <reference value="Patient/8888804"/>
    </subject>
  </Observation>
  
  </resource>
  <request>
    <method value="POST"/>
    <url value="Observation/3437-lab"/>
  </request>
</entry>
<entry>
  <resource>
    
    
  <Observation>
  <id value="3438-lab"/>
    <text>
      <status value="generated"/>
      <div xmlns="http://www.w3.org/1999/xhtml">2012-11-09: CO2 SerPl-sCnc = 21 mmol/L</div>
    </text>
    <code>
      <coding>
        <system value="http://loinc.org"/>
        <code value="2028-9"/>
        <display value="CO2 SerPl-sCnc"/>
      </coding>
      <text value="CO2 SerPl-sCnc"/>
    </code>
    <valueQuantity>
      <value value="21.0"/>
      <unit value="mmol/L"/>
      <system value="http://unitsofmeasure.org" />
      <code value=""/>
    </valueQuantity>
    
    <effectiveDateTime value="2012-11-09"/>
    <status value="final"/>
    <subject>
      <reference value="Patient/8888804"/>
    </subject>
  </Observation>
  
  </resource>
  <request>
    <method value="POST"/>
    <url value="Observation/3438-lab"/>
  </request>
</entry>
<entry>
  <resource>
    
    
  <Observation>
  <id value="3439-lab"/>
    <text>
      <status value="generated"/>
      <div xmlns="http://www.w3.org/1999/xhtml">2012-11-09: Chloride SerPl-sCnc = 102 mmol/L</div>
    </text>
    <code>
      <coding>
        <system value="http://loinc.org"/>
        <code value="2075-0"/>
        <display value="Chloride SerPl-sCnc"/>
      </coding>
      <text value="Chloride SerPl-sCnc"/>
    </code>
    <valueQuantity>
      <value value="102.0"/>
      <unit value="mmol/L"/>
      <system value="http://unitsofmeasure.org" />
      <code value=""/>
    </valueQuantity>
    
    <effectiveDateTime value="2012-11-09"/>
    <status value="final"/>
    <subject>
      <reference value="Patient/8888804"/>
    </subject>
  </Observation>
  
  </resource>
  <request>
    <method value="POST"/>
    <url value="Observation/3439-lab"/>
  </request>
</entry>
<entry>
  <resource>
    
    
  <Observation>
  <id value="3440-lab"/>
    <text>
      <status value="generated"/>
      <div xmlns="http://www.w3.org/1999/xhtml">2012-11-09: BUN SerPl-mCnc = 15 mg/dL</div>
    </text>
    <code>
      <coding>
        <system value="http://loinc.org"/>
        <code value="3094-0"/>
        <display value="BUN SerPl-mCnc"/>
      </coding>
      <text value="BUN SerPl-mCnc"/>
    </code>
    <valueQuantity>
      <value value="15.0"/>
      <unit value="mg/dL"/>
      <system value="http://unitsofmeasure.org" />
      <code value=""/>
    </valueQuantity>
    
    <effectiveDateTime value="2012-11-09"/>
    <status value="final"/>
    <subject>
      <reference value="Patient/8888804"/>
    </subject>
  </Observation>
  
  </resource>
  <request>
    <method value="POST"/>
    <url value="Observation/3440-lab"/>
  </request>
</entry>
<entry>
  <resource>
    
    
  <Observation>
  <id value="3441-lab"/>
    <text>
      <status value="generated"/>
      <div xmlns="http://www.w3.org/1999/xhtml">2012-11-09: Creat SerPl-mCnc = 0.91 mg/dL</div>
    </text>
    <code>
      <coding>
        <system value="http://loinc.org"/>
        <code value="2160-0"/>
        <display value="Creat SerPl-mCnc"/>
      </coding>
      <text value="Creat SerPl-mCnc"/>
    </code>
    <valueQuantity>
      <value value="0.91"/>
      <unit value="mg/dL"/>
      <system value="http://unitsofmeasure.org" />
      <code value=""/>
    </valueQuantity>
    
    <effectiveDateTime value="2012-11-09"/>
    <status value="final"/>
    <subject>
      <reference value="Patient/8888804"/>
    </subject>
  </Observation>
  
  </resource>
  <request>
    <method value="POST"/>
    <url value="Observation/3441-lab"/>
  </request>
</entry>
<entry>
  <resource>
    
    
  <Observation>
  <id value="3442-lab"/>
    <text>
      <status value="generated"/>
      <div xmlns="http://www.w3.org/1999/xhtml">2012-11-09: ALP SerPl-cCnc = 70 U/L</div>
    </text>
    <code>
      <coding>
        <system value="http://loinc.org"/>
        <code value="6768-6"/>
        <display value="ALP SerPl-cCnc"/>
      </coding>
      <text value="ALP SerPl-cCnc"/>
    </code>
    <valueQuantity>
      <value value="70.0"/>
      <unit value="U/L"/>
      <system value="http://unitsofmeasure.org" />
      <code value=""/>
    </valueQuantity>
    
    <effectiveDateTime value="2012-11-09"/>
    <status value="final"/>
    <subject>
      <reference value="Patient/8888804"/>
    </subject>
  </Observation>
  
  </resource>
  <request>
    <method value="POST"/>
    <url value="Observation/3442-lab"/>
  </request>
</entry>
<entry>
  <resource>
    
    
  <Observation>
  <id value="3443-lab"/>
    <text>
      <status value="generated"/>
      <div xmlns="http://www.w3.org/1999/xhtml">2012-11-09: ALT SerPl-cCnc = 29 U/L</div>
    </text>
    <code>
      <coding>
        <system value="http://loinc.org"/>
        <code value="1742-6"/>
        <display value="ALT SerPl-cCnc"/>
      </coding>
      <text value="ALT SerPl-cCnc"/>
    </code>
    <valueQuantity>
      <value value="29.0"/>
      <unit value="U/L"/>
      <system value="http://unitsofmeasure.org" />
      <code value=""/>
    </valueQuantity>
    
    <effectiveDateTime value="2012-11-09"/>
    <status value="final"/>
    <subject>
      <reference value="Patient/8888804"/>
    </subject>
  </Observation>
  
  </resource>
  <request>
    <method value="POST"/>
    <url value="Observation/3443-lab"/>
  </request>
</entry>
<entry>
  <resource>
    
    
  <Observation>
  <id value="3444-lab"/>
    <text>
      <status value="generated"/>
      <div xmlns="http://www.w3.org/1999/xhtml">2012-11-09: AST SerPl-cCnc = 22 U/L</div>
    </text>
    <code>
      <coding>
        <system value="http://loinc.org"/>
        <code value="1920-8"/>
        <display value="AST SerPl-cCnc"/>
      </coding>
      <text value="AST SerPl-cCnc"/>
    </code>
    <valueQuantity>
      <value value="22.0"/>
      <unit value="U/L"/>
      <system value="http://unitsofmeasure.org" />
      <code value=""/>
    </valueQuantity>
    
    <effectiveDateTime value="2012-11-09"/>
    <status value="final"/>
    <subject>
      <reference value="Patient/8888804"/>
    </subject>
  </Observation>
  
  </resource>
  <request>
    <method value="POST"/>
    <url value="Observation/3444-lab"/>
  </request>
</entry>
<entry>
  <resource>
    
    
  <Observation>
  <id value="3445-lab"/>
    <text>
      <status value="generated"/>
      <div xmlns="http://www.w3.org/1999/xhtml">2012-11-09: Bilirub SerPl-mCnc = 0.3 mg/dL</div>
    </text>
    <code>
      <coding>
        <system value="http://loinc.org"/>
        <code value="1975-2"/>
        <display value="Bilirub SerPl-mCnc"/>
      </coding>
      <text value="Bilirub SerPl-mCnc"/>
    </code>
    <valueQuantity>
      <value value="0.3"/>
      <unit value="mg/dL"/>
      <system value="http://unitsofmeasure.org" />
      <code value=""/>
    </valueQuantity>
    
    <effectiveDateTime value="2012-11-09"/>
    <status value="final"/>
    <subject>
      <reference value="Patient/8888804"/>
    </subject>
  </Observation>
  
  </resource>
  <request>
    <method value="POST"/>
    <url value="Observation/3445-lab"/>
  </request>
</entry>
<entry>
  <resource>
    
    
  <Observation>
  <id value="3446-lab"/>
    <text>
      <status value="generated"/>
      <div xmlns="http://www.w3.org/1999/xhtml">2012-11-09: Urate SerPl-mCnc = 5.2 mg/dL</div>
    </text>
    <code>
      <coding>
        <system value="http://loinc.org"/>
        <code value="3084-1"/>
        <display value="Urate SerPl-mCnc"/>
      </coding>
      <text value="Urate SerPl-mCnc"/>
    </code>
    <valueQuantity>
      <value value="5.2"/>
      <unit value="mg/dL"/>
      <system value="http://unitsofmeasure.org" />
      <code value=""/>
    </valueQuantity>
    
    <effectiveDateTime value="2012-11-09"/>
    <status value="final"/>
    <subject>
      <reference value="Patient/8888804"/>
    </subject>
  </Observation>
  
  </resource>
  <request>
    <method value="POST"/>
    <url value="Observation/3446-lab"/>
  </request>
</entry>
<entry>
  <resource>
    
    
  <Observation>
  <id value="3447-lab"/>
    <text>
      <status value="generated"/>
      <div xmlns="http://www.w3.org/1999/xhtml">2012-11-09: Cholest SerPl-mCnc = 162 mg/dL</div>
    </text>
    <code>
      <coding>
        <system value="http://loinc.org"/>
        <code value="2093-3"/>
        <display value="Cholest SerPl-mCnc"/>
      </coding>
      <text value="Cholest SerPl-mCnc"/>
    </code>
    <valueQuantity>
      <value value="162.0"/>
      <unit value="mg/dL"/>
      <system value="http://unitsofmeasure.org" />
      <code value=""/>
    </valueQuantity>
    
    <effectiveDateTime value="2012-11-09"/>
    <status value="final"/>
    <subject>
      <reference value="Patient/8888804"/>
    </subject>
  </Observation>
  
  </resource>
  <request>
    <method value="POST"/>
    <url value="Observation/3447-lab"/>
  </request>
</entry>
<entry>
  <resource>
    
    
  <Observation>
  <id value="3448-lab"/>
    <text>
      <status value="generated"/>
      <div xmlns="http://www.w3.org/1999/xhtml">2012-11-09: HDLc SerPl-mCnc = 46 mg/dL</div>
    </text>
    <code>
      <coding>
        <system value="http://loinc.org"/>
        <code value="2085-9"/>
        <display value="HDLc SerPl-mCnc"/>
      </coding>
      <text value="HDLc SerPl-mCnc"/>
    </code>
    <valueQuantity>
      <value value="46.0"/>
      <unit value="mg/dL"/>
      <system value="http://unitsofmeasure.org" />
      <code value=""/>
    </valueQuantity>
    
    <effectiveDateTime value="2012-11-09"/>
    <status value="final"/>
    <subject>
      <reference value="Patient/8888804"/>
    </subject>
  </Observation>
  
  </resource>
  <request>
    <method value="POST"/>
    <url value="Observation/3448-lab"/>
  </request>
</entry>
<entry>
  <resource>
    
    
  <Observation>
  <id value="3449-lab"/>
    <text>
      <status value="generated"/>
      <div xmlns="http://www.w3.org/1999/xhtml">2012-11-09: LDLc SerPl Direct Assay-mCnc = 77 mg/dL</div>
    </text>
    <code>
      <coding>
        <system value="http://loinc.org"/>
        <code value="18262-6"/>
        <display value="LDLc SerPl Direct Assay-mCnc"/>
      </coding>
      <text value="LDLc SerPl Direct Assay-mCnc"/>
    </code>
    <valueQuantity>
      <value value="77.0"/>
      <unit value="mg/dL"/>
      <system value="http://unitsofmeasure.org" />
      <code value=""/>
    </valueQuantity>
    
    <effectiveDateTime value="2012-11-09"/>
    <status value="final"/>
    <subject>
      <reference value="Patient/8888804"/>
    </subject>
  </Observation>
  
  </resource>
  <request>
    <method value="POST"/>
    <url value="Observation/3449-lab"/>
  </request>
</entry>
<entry>
  <resource>
    
    
  <Observation>
  <id value="3450-lab"/>
    <text>
      <status value="generated"/>
      <div xmlns="http://www.w3.org/1999/xhtml">2012-11-09: Trigl SerPl-mCnc = 54 mg/dL</div>
    </text>
    <code>
      <coding>
        <system value="http://loinc.org"/>
        <code value="2571-8"/>
        <display value="Trigl SerPl-mCnc"/>
      </coding>
      <text value="Trigl SerPl-mCnc"/>
    </code>
    <valueQuantity>
      <value value="54.0"/>
      <unit value="mg/dL"/>
      <system value="http://unitsofmeasure.org" />
      <code value=""/>
    </valueQuantity>
    
    <effectiveDateTime value="2012-11-09"/>
    <status value="final"/>
    <subject>
      <reference value="Patient/8888804"/>
    </subject>
  </Observation>
  
  </resource>
  <request>
    <method value="POST"/>
    <url value="Observation/3450-lab"/>
  </request>
</entry>
<entry>
  <resource>
    
    
  <Observation>
  <id value="3451-lab"/>
    <text>
      <status value="generated"/>
      <div xmlns="http://www.w3.org/1999/xhtml">2012-11-09: LDL SerPl-sCnc = 1205 nmol/L</div>
    </text>
    <code>
      <coding>
        <system value="http://loinc.org"/>
        <code value="54434-6"/>
        <display value="LDL SerPl-sCnc"/>
      </coding>
      <text value="LDL SerPl-sCnc"/>
    </code>
    <valueQuantity>
      <value value="1205.0"/>
      <unit value="nmol/L"/>
      <system value="http://unitsofmeasure.org" />
      <code value=""/>
    </valueQuantity>
    
    <effectiveDateTime value="2012-11-09"/>
    <status value="final"/>
    <subject>
      <reference value="Patient/8888804"/>
    </subject>
  </Observation>
  
  </resource>
  <request>
    <method value="POST"/>
    <url value="Observation/3451-lab"/>
  </request>
</entry>
<entry>
  <resource>
    
    
  <Observation>
  <id value="3452-lab"/>
    <text>
      <status value="generated"/>
      <div xmlns="http://www.w3.org/1999/xhtml">2012-11-09: LDL Small SerPl-sCnc = 102 nmol/L</div>
    </text>
    <code>
      <coding>
        <system value="http://loinc.org"/>
        <code value="43727-7"/>
        <display value="LDL Small SerPl-sCnc"/>
      </coding>
      <text value="LDL Small SerPl-sCnc"/>
    </code>
    <valueQuantity>
      <value value="102.0"/>
      <unit value="nmol/L"/>
      <system value="http://unitsofmeasure.org" />
      <code value=""/>
    </valueQuantity>
    
    <effectiveDateTime value="2012-11-09"/>
    <status value="final"/>
    <subject>
      <reference value="Patient/8888804"/>
    </subject>
  </Observation>
  
  </resource>
  <request>
    <method value="POST"/>
    <url value="Observation/3452-lab"/>
  </request>
</entry>
<entry>
  <resource>
    
    
  <Observation>
  <id value="3453-lab"/>
    <text>
      <status value="generated"/>
      <div xmlns="http://www.w3.org/1999/xhtml">2012-11-09: HLD.large SerPl-sCnc = 34.7 umol/L</div>
    </text>
    <code>
      <coding>
        <system value="http://loinc.org"/>
        <code value="43729-3"/>
        <display value="HLD.large SerPl-sCnc"/>
      </coding>
      <text value="HLD.large SerPl-sCnc"/>
    </code>
    <valueQuantity>
      <value value="34.7"/>
      <unit value="umol/L"/>
      <system value="http://unitsofmeasure.org" />
      <code value=""/>
    </valueQuantity>
    
    <effectiveDateTime value="2012-11-09"/>
    <status value="final"/>
    <subject>
      <reference value="Patient/8888804"/>
    </subject>
  </Observation>
  
  </resource>
  <request>
    <method value="POST"/>
    <url value="Observation/3453-lab"/>
  </request>
</entry>
<entry>
  <resource>
    
    
  <Observation>
  <id value="3454-lab"/>
    <text>
      <status value="generated"/>
      <div xmlns="http://www.w3.org/1999/xhtml">2012-11-09: LP-IR score SerPl-aCnc = 78 </div>
    </text>
    <code>
      <coding>
        <system value="http://loinc.org"/>
        <code value="62255-5"/>
        <display value="LP-IR score SerPl-aCnc"/>
      </coding>
      <text value="LP-IR score SerPl-aCnc"/>
    </code>
    <valueQuantity>
      <value value="78.0"/>
      <unit value=""/>
      <system value="http://unitsofmeasure.org" />
      <code value=""/>
    </valueQuantity>
    
    <effectiveDateTime value="2012-11-09"/>
    <status value="final"/>
    <subject>
      <reference value="Patient/8888804"/>
    </subject>
  </Observation>
  
  </resource>
  <request>
    <method value="POST"/>
    <url value="Observation/3454-lab"/>
  </request>
</entry>
<entry>
  <resource>
    
    
  <Observation>
  <id value="3455-lab"/>
    <text>
      <status value="generated"/>
      <div xmlns="http://www.w3.org/1999/xhtml">2012-11-09: Appearance Ur = clear, yellow </div>
    </text>
    <code>
      <coding>
        <system value="http://loinc.org"/>
        <code value="5767-9"/>
        <display value="Appearance Ur"/>
      </coding>
      <text value="Appearance Ur"/>
    </code>
    <valueString value="clear, yellow"/>
    
    <effectiveDateTime value="2012-11-09"/>
    <status value="final"/>
    <subject>
      <reference value="Patient/8888804"/>
    </subject>
  </Observation>
  
  </resource>
  <request>
    <method value="POST"/>
    <url value="Observation/3455-lab"/>
  </request>
</entry>
<entry>
  <resource>
    
    
  <Observation>
  <id value="3456-lab"/>
    <extension url="http://fhir-registry.smarthealthit.org/StructureDefinition/labs#value-range" >
        <valueString value='[&#39;Negative&#39;, &#39;Positive&#39;]'/>
    </extension>
    
    <text>
      <status value="generated"/>
      <div xmlns="http://www.w3.org/1999/xhtml">2012-11-09: Bilirub Ur Ql Strip = Negative </div>
    </text>
    <code>
      <coding>
        <system value="http://loinc.org"/>
        <code value="5770-3"/>
        <display value="Bilirub Ur Ql Strip"/>
      </coding>
      <text value="Bilirub Ur Ql Strip"/>
    </code>
    <valueString value="Negative"/>
    
    <effectiveDateTime value="2012-11-09"/>
    <status value="final"/>
    <subject>
      <reference value="Patient/8888804"/>
    </subject>
  </Observation>
  
  </resource>
  <request>
    <method value="POST"/>
    <url value="Observation/3456-lab"/>
  </request>
</entry>
<entry>
  <resource>
    
    
  <Observation>
  <id value="3457-lab"/>
    <text>
      <status value="generated"/>
      <div xmlns="http://www.w3.org/1999/xhtml">2012-11-09: Glucose Ur Strip-mCnc = 0 mg/dL</div>
    </text>
    <code>
      <coding>
        <system value="http://loinc.org"/>
        <code value="5792-7"/>
        <display value="Glucose Ur Strip-mCnc"/>
      </coding>
      <text value="Glucose Ur Strip-mCnc"/>
    </code>
    <valueQuantity>
      <value value="0.0"/>
      <unit value="mg/dL"/>
      <system value="http://unitsofmeasure.org" />
      <code value=""/>
    </valueQuantity>
    
    <effectiveDateTime value="2012-11-09"/>
    <status value="final"/>
    <subject>
      <reference value="Patient/8888804"/>
    </subject>
  </Observation>
  
  </resource>
  <request>
    <method value="POST"/>
    <url value="Observation/3457-lab"/>
  </request>
</entry>
<entry>
  <resource>
    
    
  <Observation>
  <id value="3458-lab"/>
    <extension url="http://fhir-registry.smarthealthit.org/StructureDefinition/labs#value-range" >
        <valueString value='[&#39;Negative&#39;, &#39;Positive&#39;]'/>
    </extension>
    
    <text>
      <status value="generated"/>
      <div xmlns="http://www.w3.org/1999/xhtml">2012-11-09: Ketones Ur Ql = Negative </div>
    </text>
    <code>
      <coding>
        <system value="http://loinc.org"/>
        <code value="33903-6"/>
        <display value="Ketones Ur Ql"/>
      </coding>
      <text value="Ketones Ur Ql"/>
    </code>
    <valueString value="Negative"/>
    
    <effectiveDateTime value="2012-11-09"/>
    <status value="final"/>
    <subject>
      <reference value="Patient/8888804"/>
    </subject>
  </Observation>
  
  </resource>
  <request>
    <method value="POST"/>
    <url value="Observation/3458-lab"/>
  </request>
</entry>
<entry>
  <resource>
    
    
  <Observation>
  <id value="3459-lab"/>
    <extension url="http://fhir-registry.smarthealthit.org/StructureDefinition/labs#value-range" >
        <valueString value='[&#39;Negative&#39;, &#39;Positive&#39;]'/>
    </extension>
    
    <text>
      <status value="generated"/>
      <div xmlns="http://www.w3.org/1999/xhtml">2012-11-09: Leukocyte esterase Ur Ql Strip = Negative </div>
    </text>
    <code>
      <coding>
        <system value="http://loinc.org"/>
        <code value="5799-2"/>
        <display value="Leukocyte esterase Ur Ql Strip"/>
      </coding>
      <text value="Leukocyte esterase Ur Ql Strip"/>
    </code>
    <valueString value="Negative"/>
    
    <effectiveDateTime value="2012-11-09"/>
    <status value="final"/>
    <subject>
      <reference value="Patient/8888804"/>
    </subject>
  </Observation>
  
  </resource>
  <request>
    <method value="POST"/>
    <url value="Observation/3459-lab"/>
  </request>
</entry>
<entry>
  <resource>
    
    
  <Observation>
  <id value="3460-lab"/>
    <text>
      <status value="generated"/>
      <div xmlns="http://www.w3.org/1999/xhtml">2012-11-09: Microalbumin Ur-mCnc = 0.5 mg/dL</div>
    </text>
    <code>
      <coding>
        <system value="http://loinc.org"/>
        <code value="14957-5"/>
        <display value="Microalbumin Ur-mCnc"/>
      </coding>
      <text value="Microalbumin Ur-mCnc"/>
    </code>
    <valueQuantity>
      <value value="0.5"/>
      <unit value="mg/dL"/>
      <system value="http://unitsofmeasure.org" />
      <code value=""/>
    </valueQuantity>
    
    <effectiveDateTime value="2012-11-09"/>
    <status value="final"/>
    <subject>
      <reference value="Patient/8888804"/>
    </subject>
  </Observation>
  
  </resource>
  <request>
    <method value="POST"/>
    <url value="Observation/3460-lab"/>
  </request>
</entry>
<entry>
  <resource>
    
    
  <Observation>
  <id value="3461-lab"/>
    <extension url="http://fhir-registry.smarthealthit.org/StructureDefinition/labs#value-range" >
        <valueString value='[&#39;Negative&#39;, &#39;Positive&#39;]'/>
    </extension>
    
    <text>
      <status value="generated"/>
      <div xmlns="http://www.w3.org/1999/xhtml">2012-11-09: Nitrite Ur Ql Strip = Negative </div>
    </text>
    <code>
      <coding>
        <system value="http://loinc.org"/>
        <code value="5802-4"/>
        <display value="Nitrite Ur Ql Strip"/>
      </coding>
      <text value="Nitrite Ur Ql Strip"/>
    </code>
    <valueString value="Negative"/>
    
    <effectiveDateTime value="2012-11-09"/>
    <status value="final"/>
    <subject>
      <reference value="Patient/8888804"/>
    </subject>
  </Observation>
  
  </resource>
  <request>
    <method value="POST"/>
    <url value="Observation/3461-lab"/>
  </request>
</entry>
<entry>
  <resource>
    
    
  <Observation>
  <id value="3462-lab"/>
    <extension url="http://fhir-registry.smarthealthit.org/StructureDefinition/labs#value-range" >
        <valueString value='[&#39;Negative&#39;, &#39;Positive&#39;]'/>
    </extension>
    
    <text>
      <status value="generated"/>
      <div xmlns="http://www.w3.org/1999/xhtml">2012-11-09: Hgb Ur Ql Strip = Negative </div>
    </text>
    <code>
      <coding>
        <system value="http://loinc.org"/>
        <code value="5794-3"/>
        <display value="Hgb Ur Ql Strip"/>
      </coding>
      <text value="Hgb Ur Ql Strip"/>
    </code>
    <valueString value="Negative"/>
    
    <effectiveDateTime value="2012-11-09"/>
    <status value="final"/>
    <subject>
      <reference value="Patient/8888804"/>
    </subject>
  </Observation>
  
  </resource>
  <request>
    <method value="POST"/>
    <url value="Observation/3462-lab"/>
  </request>
</entry>
<entry>
  <resource>
    
    
  <Observation>
  <id value="3463-lab"/>
    <text>
      <status value="generated"/>
      <div xmlns="http://www.w3.org/1999/xhtml">2012-11-09: pH Ur Strip = 5 [pH]</div>
    </text>
    <code>
      <coding>
        <system value="http://loinc.org"/>
        <code value="5803-2"/>
        <display value="pH Ur Strip"/>
      </coding>
      <text value="pH Ur Strip"/>
    </code>
    <valueQuantity>
      <value value="5.0"/>
      <unit value="[pH]"/>
      <system value="http://unitsofmeasure.org" />
      <code value=""/>
    </valueQuantity>
    
    <effectiveDateTime value="2012-11-09"/>
    <status value="final"/>
    <subject>
      <reference value="Patient/8888804"/>
    </subject>
  </Observation>
  
  </resource>
  <request>
    <method value="POST"/>
    <url value="Observation/3463-lab"/>
  </request>
</entry>
<entry>
  <resource>
    
    
  <Observation>
  <id value="3464-lab"/>
    <text>
      <status value="generated"/>
      <div xmlns="http://www.w3.org/1999/xhtml">2012-11-09: Prot Ur Strip-mCnc = 0 mg/dL</div>
    </text>
    <code>
      <coding>
        <system value="http://loinc.org"/>
        <code value="5804-0"/>
        <display value="Prot Ur Strip-mCnc"/>
      </coding>
      <text value="Prot Ur Strip-mCnc"/>
    </code>
    <valueQuantity>
      <value value="0.0"/>
      <unit value="mg/dL"/>
      <system value="http://unitsofmeasure.org" />
      <code value=""/>
    </valueQuantity>
    
    <effectiveDateTime value="2012-11-09"/>
    <status value="final"/>
    <subject>
      <reference value="Patient/8888804"/>
    </subject>
  </Observation>
  
  </resource>
  <request>
    <method value="POST"/>
    <url value="Observation/3464-lab"/>
  </request>
</entry>
<entry>
  <resource>
    
    
  <Observation>
  <id value="3465-lab"/>
    <text>
      <status value="generated"/>
      <div xmlns="http://www.w3.org/1999/xhtml">2012-11-09: Sp Gr Ur Strip = 1.015 </div>
    </text>
    <code>
      <coding>
        <system value="http://loinc.org"/>
        <code value="5811-5"/>
        <display value="Sp Gr Ur Strip"/>
      </coding>
      <text value="Sp Gr Ur Strip"/>
    </code>
    <valueQuantity>
      <value value="1.015"/>
      <unit value=""/>
      <system value="http://unitsofmeasure.org" />
      <code value=""/>
    </valueQuantity>
    
    <effectiveDateTime value="2012-11-09"/>
    <status value="final"/>
    <subject>
      <reference value="Patient/8888804"/>
    </subject>
  </Observation>
  
  </resource>
  <request>
    <method value="POST"/>
    <url value="Observation/3465-lab"/>
  </request>
</entry>
<entry>
  <resource>
    
    
  <Observation>
  <id value="3466-lab"/>
    <text>
      <status value="generated"/>
      <div xmlns="http://www.w3.org/1999/xhtml">2011-07-12: Glucose SerPl-mCnc = 87 mg/dL</div>
    </text>
    <code>
      <coding>
        <system value="http://loinc.org"/>
        <code value="2345-7"/>
        <display value="Glucose SerPl-mCnc"/>
      </coding>
      <text value="Glucose SerPl-mCnc"/>
    </code>
    <valueQuantity>
      <value value="87.0"/>
      <unit value="mg/dL"/>
      <system value="http://unitsofmeasure.org" />
      <code value=""/>
    </valueQuantity>
    
    <effectiveDateTime value="2011-07-12"/>
    <status value="final"/>
    <subject>
      <reference value="Patient/8888804"/>
    </subject>
  </Observation>
  
  </resource>
  <request>
    <method value="POST"/>
    <url value="Observation/3466-lab"/>
  </request>
</entry>
<entry>
  <resource>
    
    
  <Observation>
  <id value="3467-lab"/>
    <text>
      <status value="generated"/>
      <div xmlns="http://www.w3.org/1999/xhtml">2011-07-12: Calcium SerPl-mCnc = 9.4 mg/dL</div>
    </text>
    <code>
      <coding>
        <system value="http://loinc.org"/>
        <code value="17861-6"/>
        <display value="Calcium SerPl-mCnc"/>
      </coding>
      <text value="Calcium SerPl-mCnc"/>
    </code>
    <valueQuantity>
      <value value="9.4"/>
      <unit value="mg/dL"/>
      <system value="http://unitsofmeasure.org" />
      <code value=""/>
    </valueQuantity>
    
    <effectiveDateTime value="2011-07-12"/>
    <status value="final"/>
    <subject>
      <reference value="Patient/8888804"/>
    </subject>
  </Observation>
  
  </resource>
  <request>
    <method value="POST"/>
    <url value="Observation/3467-lab"/>
  </request>
</entry>
<entry>
  <resource>
    
    
  <Observation>
  <id value="3468-lab"/>
    <text>
      <status value="generated"/>
      <div xmlns="http://www.w3.org/1999/xhtml">2011-07-12: Prot SerPl-mCnc = 6.7 g/dL</div>
    </text>
    <code>
      <coding>
        <system value="http://loinc.org"/>
        <code value="2885-2"/>
        <display value="Prot SerPl-mCnc"/>
      </coding>
      <text value="Prot SerPl-mCnc"/>
    </code>
    <valueQuantity>
      <value value="6.7"/>
      <unit value="g/dL"/>
      <system value="http://unitsofmeasure.org" />
      <code value=""/>
    </valueQuantity>
    
    <effectiveDateTime value="2011-07-12"/>
    <status value="final"/>
    <subject>
      <reference value="Patient/8888804"/>
    </subject>
  </Observation>
  
  </resource>
  <request>
    <method value="POST"/>
    <url value="Observation/3468-lab"/>
  </request>
</entry>
<entry>
  <resource>
    
    
  <Observation>
  <id value="3469-lab"/>
    <text>
      <status value="generated"/>
      <div xmlns="http://www.w3.org/1999/xhtml">2011-07-12: Albumin SerPl-mCnc = 4.3 g/dL</div>
    </text>
    <code>
      <coding>
        <system value="http://loinc.org"/>
        <code value="1751-7"/>
        <display value="Albumin SerPl-mCnc"/>
      </coding>
      <text value="Albumin SerPl-mCnc"/>
    </code>
    <valueQuantity>
      <value value="4.3"/>
      <unit value="g/dL"/>
      <system value="http://unitsofmeasure.org" />
      <code value=""/>
    </valueQuantity>
    
    <effectiveDateTime value="2011-07-12"/>
    <status value="final"/>
    <subject>
      <reference value="Patient/8888804"/>
    </subject>
  </Observation>
  
  </resource>
  <request>
    <method value="POST"/>
    <url value="Observation/3469-lab"/>
  </request>
</entry>
<entry>
  <resource>
    
    
  <Observation>
  <id value="3470-lab"/>
    <text>
      <status value="generated"/>
      <div xmlns="http://www.w3.org/1999/xhtml">2011-07-12: Sodium SerPl-sCnc = 140 mmol/L</div>
    </text>
    <code>
      <coding>
        <system value="http://loinc.org"/>
        <code value="2951-2"/>
        <display value="Sodium SerPl-sCnc"/>
      </coding>
      <text value="Sodium SerPl-sCnc"/>
    </code>
    <valueQuantity>
      <value value="140.0"/>
      <unit value="mmol/L"/>
      <system value="http://unitsofmeasure.org" />
      <code value=""/>
    </valueQuantity>
    
    <effectiveDateTime value="2011-07-12"/>
    <status value="final"/>
    <subject>
      <reference value="Patient/8888804"/>
    </subject>
  </Observation>
  
  </resource>
  <request>
    <method value="POST"/>
    <url value="Observation/3470-lab"/>
  </request>
</entry>
<entry>
  <resource>
    
    
  <Observation>
  <id value="3471-lab"/>
    <text>
      <status value="generated"/>
      <div xmlns="http://www.w3.org/1999/xhtml">2011-07-12: Potassium SerPl-sCnc = 4.2 mmol/L</div>
    </text>
    <code>
      <coding>
        <system value="http://loinc.org"/>
        <code value="2823-3"/>
        <display value="Potassium SerPl-sCnc"/>
      </coding>
      <text value="Potassium SerPl-sCnc"/>
    </code>
    <valueQuantity>
      <value value="4.2"/>
      <unit value="mmol/L"/>
      <system value="http://unitsofmeasure.org" />
      <code value=""/>
    </valueQuantity>
    
    <effectiveDateTime value="2011-07-12"/>
    <status value="final"/>
    <subject>
      <reference value="Patient/8888804"/>
    </subject>
  </Observation>
  
  </resource>
  <request>
    <method value="POST"/>
    <url value="Observation/3471-lab"/>
  </request>
</entry>
<entry>
  <resource>
    
    
  <Observation>
  <id value="3472-lab"/>
    <text>
      <status value="generated"/>
      <div xmlns="http://www.w3.org/1999/xhtml">2011-07-12: CO2 SerPl-sCnc = 21 mmol/L</div>
    </text>
    <code>
      <coding>
        <system value="http://loinc.org"/>
        <code value="2028-9"/>
        <display value="CO2 SerPl-sCnc"/>
      </coding>
      <text value="CO2 SerPl-sCnc"/>
    </code>
    <valueQuantity>
      <value value="21.0"/>
      <unit value="mmol/L"/>
      <system value="http://unitsofmeasure.org" />
      <code value=""/>
    </valueQuantity>
    
    <effectiveDateTime value="2011-07-12"/>
    <status value="final"/>
    <subject>
      <reference value="Patient/8888804"/>
    </subject>
  </Observation>
  
  </resource>
  <request>
    <method value="POST"/>
    <url value="Observation/3472-lab"/>
  </request>
</entry>
<entry>
  <resource>
    
    
  <Observation>
  <id value="3473-lab"/>
    <text>
      <status value="generated"/>
      <div xmlns="http://www.w3.org/1999/xhtml">2011-07-12: Chloride SerPl-sCnc = 102 mmol/L</div>
    </text>
    <code>
      <coding>
        <system value="http://loinc.org"/>
        <code value="2075-0"/>
        <display value="Chloride SerPl-sCnc"/>
      </coding>
      <text value="Chloride SerPl-sCnc"/>
    </code>
    <valueQuantity>
      <value value="102.0"/>
      <unit value="mmol/L"/>
      <system value="http://unitsofmeasure.org" />
      <code value=""/>
    </valueQuantity>
    
    <effectiveDateTime value="2011-07-12"/>
    <status value="final"/>
    <subject>
      <reference value="Patient/8888804"/>
    </subject>
  </Observation>
  
  </resource>
  <request>
    <method value="POST"/>
    <url value="Observation/3473-lab"/>
  </request>
</entry>
<entry>
  <resource>
    
    
  <Observation>
  <id value="3474-lab"/>
    <text>
      <status value="generated"/>
      <div xmlns="http://www.w3.org/1999/xhtml">2011-07-12: BUN SerPl-mCnc = 8 mg/dL</div>
    </text>
    <code>
      <coding>
        <system value="http://loinc.org"/>
        <code value="3094-0"/>
        <display value="BUN SerPl-mCnc"/>
      </coding>
      <text value="BUN SerPl-mCnc"/>
    </code>
    <valueQuantity>
      <value value="8.0"/>
      <unit value="mg/dL"/>
      <system value="http://unitsofmeasure.org" />
      <code value=""/>
    </valueQuantity>
    
    <effectiveDateTime value="2011-07-12"/>
    <status value="final"/>
    <subject>
      <reference value="Patient/8888804"/>
    </subject>
  </Observation>
  
  </resource>
  <request>
    <method value="POST"/>
    <url value="Observation/3474-lab"/>
  </request>
</entry>
<entry>
  <resource>
    
    
  <Observation>
  <id value="3475-lab"/>
    <text>
      <status value="generated"/>
      <div xmlns="http://www.w3.org/1999/xhtml">2011-07-12: Creat SerPl-mCnc = 0.79 mg/dL</div>
    </text>
    <code>
      <coding>
        <system value="http://loinc.org"/>
        <code value="2160-0"/>
        <display value="Creat SerPl-mCnc"/>
      </coding>
      <text value="Creat SerPl-mCnc"/>
    </code>
    <valueQuantity>
      <value value="0.79"/>
      <unit value="mg/dL"/>
      <system value="http://unitsofmeasure.org" />
      <code value=""/>
    </valueQuantity>
    
    <effectiveDateTime value="2011-07-12"/>
    <status value="final"/>
    <subject>
      <reference value="Patient/8888804"/>
    </subject>
  </Observation>
  
  </resource>
  <request>
    <method value="POST"/>
    <url value="Observation/3475-lab"/>
  </request>
</entry>
<entry>
  <resource>
    
    
  <Observation>
  <id value="3476-lab"/>
    <text>
      <status value="generated"/>
      <div xmlns="http://www.w3.org/1999/xhtml">2011-07-12: ALP SerPl-cCnc = 58 U/L</div>
    </text>
    <code>
      <coding>
        <system value="http://loinc.org"/>
        <code value="6768-6"/>
        <display value="ALP SerPl-cCnc"/>
      </coding>
      <text value="ALP SerPl-cCnc"/>
    </code>
    <valueQuantity>
      <value value="58.0"/>
      <unit value="U/L"/>
      <system value="http://unitsofmeasure.org" />
      <code value=""/>
    </valueQuantity>
    
    <effectiveDateTime value="2011-07-12"/>
    <status value="final"/>
    <subject>
      <reference value="Patient/8888804"/>
    </subject>
  </Observation>
  
  </resource>
  <request>
    <method value="POST"/>
    <url value="Observation/3476-lab"/>
  </request>
</entry>
<entry>
  <resource>
    
    
  <Observation>
  <id value="3477-lab"/>
    <text>
      <status value="generated"/>
      <div xmlns="http://www.w3.org/1999/xhtml">2011-07-12: ALT SerPl-cCnc = 24 U/L</div>
    </text>
    <code>
      <coding>
        <system value="http://loinc.org"/>
        <code value="1742-6"/>
        <display value="ALT SerPl-cCnc"/>
      </coding>
      <text value="ALT SerPl-cCnc"/>
    </code>
    <valueQuantity>
      <value value="24.0"/>
      <unit value="U/L"/>
      <system value="http://unitsofmeasure.org" />
      <code value=""/>
    </valueQuantity>
    
    <effectiveDateTime value="2011-07-12"/>
    <status value="final"/>
    <subject>
      <reference value="Patient/8888804"/>
    </subject>
  </Observation>
  
  </resource>
  <request>
    <method value="POST"/>
    <url value="Observation/3477-lab"/>
  </request>
</entry>
<entry>
  <resource>
    
    
  <Observation>
  <id value="3478-lab"/>
    <text>
      <status value="generated"/>
      <div xmlns="http://www.w3.org/1999/xhtml">2011-07-12: AST SerPl-cCnc = 21 U/L</div>
    </text>
    <code>
      <coding>
        <system value="http://loinc.org"/>
        <code value="1920-8"/>
        <display value="AST SerPl-cCnc"/>
      </coding>
      <text value="AST SerPl-cCnc"/>
    </code>
    <valueQuantity>
      <value value="21.0"/>
      <unit value="U/L"/>
      <system value="http://unitsofmeasure.org" />
      <code value=""/>
    </valueQuantity>
    
    <effectiveDateTime value="2011-07-12"/>
    <status value="final"/>
    <subject>
      <reference value="Patient/8888804"/>
    </subject>
  </Observation>
  
  </resource>
  <request>
    <method value="POST"/>
    <url value="Observation/3478-lab"/>
  </request>
</entry>
<entry>
  <resource>
    
    
  <Observation>
  <id value="3479-lab"/>
    <text>
      <status value="generated"/>
      <div xmlns="http://www.w3.org/1999/xhtml">2011-07-12: Bilirub SerPl-mCnc = 0.6 mg/dL</div>
    </text>
    <code>
      <coding>
        <system value="http://loinc.org"/>
        <code value="1975-2"/>
        <display value="Bilirub SerPl-mCnc"/>
      </coding>
      <text value="Bilirub SerPl-mCnc"/>
    </code>
    <valueQuantity>
      <value value="0.6"/>
      <unit value="mg/dL"/>
      <system value="http://unitsofmeasure.org" />
      <code value=""/>
    </valueQuantity>
    
    <effectiveDateTime value="2011-07-12"/>
    <status value="final"/>
    <subject>
      <reference value="Patient/8888804"/>
    </subject>
  </Observation>
  
  </resource>
  <request>
    <method value="POST"/>
    <url value="Observation/3479-lab"/>
  </request>
</entry>
<entry>
  <resource>
    
    
  <Observation>
  <id value="3480-lab"/>
    <text>
      <status value="generated"/>
      <div xmlns="http://www.w3.org/1999/xhtml">2011-07-12: PSA SerPl-mCnc = 0.75 ng/mL</div>
    </text>
    <code>
      <coding>
        <system value="http://loinc.org"/>
        <code value="2857-1"/>
        <display value="PSA SerPl-mCnc"/>
      </coding>
      <text value="PSA SerPl-mCnc"/>
    </code>
    <valueQuantity>
      <value value="0.75"/>
      <unit value="ng/mL"/>
      <system value="http://unitsofmeasure.org" />
      <code value=""/>
    </valueQuantity>
    
    <effectiveDateTime value="2011-07-12"/>
    <status value="final"/>
    <subject>
      <reference value="Patient/8888804"/>
    </subject>
  </Observation>
  
  </resource>
  <request>
    <method value="POST"/>
    <url value="Observation/3480-lab"/>
  </request>
</entry>
<entry>
  <resource>
    
    
  <Observation>
  <id value="3481-lab"/>
    <text>
      <status value="generated"/>
      <div xmlns="http://www.w3.org/1999/xhtml">2011-07-12: Urate SerPl-mCnc = 5.9 mg/dL</div>
    </text>
    <code>
      <coding>
        <system value="http://loinc.org"/>
        <code value="3084-1"/>
        <display value="Urate SerPl-mCnc"/>
      </coding>
      <text value="Urate SerPl-mCnc"/>
    </code>
    <valueQuantity>
      <value value="5.9"/>
      <unit value="mg/dL"/>
      <system value="http://unitsofmeasure.org" />
      <code value=""/>
    </valueQuantity>
    
    <effectiveDateTime value="2011-07-12"/>
    <status value="final"/>
    <subject>
      <reference value="Patient/8888804"/>
    </subject>
  </Observation>
  
  </resource>
  <request>
    <method value="POST"/>
    <url value="Observation/3481-lab"/>
  </request>
</entry>
<entry>
  <resource>
    
    
  <Observation>
  <id value="3482-lab"/>
    <text>
      <status value="generated"/>
      <div xmlns="http://www.w3.org/1999/xhtml">2012-05-06: Glucose SerPl-mCnc = 100 mg/dL</div>
    </text>
    <code>
      <coding>
        <system value="http://loinc.org"/>
        <code value="2345-7"/>
        <display value="Glucose SerPl-mCnc"/>
      </coding>
      <text value="Glucose SerPl-mCnc"/>
    </code>
    <valueQuantity>
      <value value="100.0"/>
      <unit value="mg/dL"/>
      <system value="http://unitsofmeasure.org" />
      <code value=""/>
    </valueQuantity>
    
    <effectiveDateTime value="2012-05-06"/>
    <status value="final"/>
    <subject>
      <reference value="Patient/8888804"/>
    </subject>
  </Observation>
  
  </resource>
  <request>
    <method value="POST"/>
    <url value="Observation/3482-lab"/>
  </request>
</entry>
<entry>
  <resource>
    
    
  <Observation>
  <id value="3483-lab"/>
    <text>
      <status value="generated"/>
      <div xmlns="http://www.w3.org/1999/xhtml">2012-05-06: Calcium SerPl-mCnc = 8.6 mg/dL</div>
    </text>
    <code>
      <coding>
        <system value="http://loinc.org"/>
        <code value="17861-6"/>
        <display value="Calcium SerPl-mCnc"/>
      </coding>
      <text value="Calcium SerPl-mCnc"/>
    </code>
    <valueQuantity>
      <value value="8.6"/>
      <unit value="mg/dL"/>
      <system value="http://unitsofmeasure.org" />
      <code value=""/>
    </valueQuantity>
    
    <effectiveDateTime value="2012-05-06"/>
    <status value="final"/>
    <subject>
      <reference value="Patient/8888804"/>
    </subject>
  </Observation>
  
  </resource>
  <request>
    <method value="POST"/>
    <url value="Observation/3483-lab"/>
  </request>
</entry>
<entry>
  <resource>
    
    
  <Observation>
  <id value="3484-lab"/>
    <text>
      <status value="generated"/>
      <div xmlns="http://www.w3.org/1999/xhtml">2012-05-06: Prot SerPl-mCnc = 6.9 g/dL</div>
    </text>
    <code>
      <coding>
        <system value="http://loinc.org"/>
        <code value="2885-2"/>
        <display value="Prot SerPl-mCnc"/>
      </coding>
      <text value="Prot SerPl-mCnc"/>
    </code>
    <valueQuantity>
      <value value="6.9"/>
      <unit value="g/dL"/>
      <system value="http://unitsofmeasure.org" />
      <code value=""/>
    </valueQuantity>
    
    <effectiveDateTime value="2012-05-06"/>
    <status value="final"/>
    <subject>
      <reference value="Patient/8888804"/>
    </subject>
  </Observation>
  
  </resource>
  <request>
    <method value="POST"/>
    <url value="Observation/3484-lab"/>
  </request>
</entry>
<entry>
  <resource>
    
    
  <Observation>
  <id value="3485-lab"/>
    <text>
      <status value="generated"/>
      <div xmlns="http://www.w3.org/1999/xhtml">2012-05-06: Albumin SerPl-mCnc = 4.1 g/dL</div>
    </text>
    <code>
      <coding>
        <system value="http://loinc.org"/>
        <code value="1751-7"/>
        <display value="Albumin SerPl-mCnc"/>
      </coding>
      <text value="Albumin SerPl-mCnc"/>
    </code>
    <valueQuantity>
      <value value="4.1"/>
      <unit value="g/dL"/>
      <system value="http://unitsofmeasure.org" />
      <code value=""/>
    </valueQuantity>
    
    <effectiveDateTime value="2012-05-06"/>
    <status value="final"/>
    <subject>
      <reference value="Patient/8888804"/>
    </subject>
  </Observation>
  
  </resource>
  <request>
    <method value="POST"/>
    <url value="Observation/3485-lab"/>
  </request>
</entry>
<entry>
  <resource>
    
    
  <Observation>
  <id value="3486-lab"/>
    <text>
      <status value="generated"/>
      <div xmlns="http://www.w3.org/1999/xhtml">2012-05-06: Sodium SerPl-sCnc = 140 mmol/L</div>
    </text>
    <code>
      <coding>
        <system value="http://loinc.org"/>
        <code value="2951-2"/>
        <display value="Sodium SerPl-sCnc"/>
      </coding>
      <text value="Sodium SerPl-sCnc"/>
    </code>
    <valueQuantity>
      <value value="140.0"/>
      <unit value="mmol/L"/>
      <system value="http://unitsofmeasure.org" />
      <code value=""/>
    </valueQuantity>
    
    <effectiveDateTime value="2012-05-06"/>
    <status value="final"/>
    <subject>
      <reference value="Patient/8888804"/>
    </subject>
  </Observation>
  
  </resource>
  <request>
    <method value="POST"/>
    <url value="Observation/3486-lab"/>
  </request>
</entry>
<entry>
  <resource>
    
    
  <Observation>
  <id value="3487-lab"/>
    <text>
      <status value="generated"/>
      <div xmlns="http://www.w3.org/1999/xhtml">2012-05-06: Potassium SerPl-sCnc = 4.4 mmol/L</div>
    </text>
    <code>
      <coding>
        <system value="http://loinc.org"/>
        <code value="2823-3"/>
        <display value="Potassium SerPl-sCnc"/>
      </coding>
      <text value="Potassium SerPl-sCnc"/>
    </code>
    <valueQuantity>
      <value value="4.4"/>
      <unit value="mmol/L"/>
      <system value="http://unitsofmeasure.org" />
      <code value=""/>
    </valueQuantity>
    
    <effectiveDateTime value="2012-05-06"/>
    <status value="final"/>
    <subject>
      <reference value="Patient/8888804"/>
    </subject>
  </Observation>
  
  </resource>
  <request>
    <method value="POST"/>
    <url value="Observation/3487-lab"/>
  </request>
</entry>
<entry>
  <resource>
    
    
  <Observation>
  <id value="3488-lab"/>
    <text>
      <status value="generated"/>
      <div xmlns="http://www.w3.org/1999/xhtml">2012-05-06: CO2 SerPl-sCnc = 22 mmol/L</div>
    </text>
    <code>
      <coding>
        <system value="http://loinc.org"/>
        <code value="2028-9"/>
        <display value="CO2 SerPl-sCnc"/>
      </coding>
      <text value="CO2 SerPl-sCnc"/>
    </code>
    <valueQuantity>
      <value value="22.0"/>
      <unit value="mmol/L"/>
      <system value="http://unitsofmeasure.org" />
      <code value=""/>
    </valueQuantity>
    
    <effectiveDateTime value="2012-05-06"/>
    <status value="final"/>
    <subject>
      <reference value="Patient/8888804"/>
    </subject>
  </Observation>
  
  </resource>
  <request>
    <method value="POST"/>
    <url value="Observation/3488-lab"/>
  </request>
</entry>
<entry>
  <resource>
    
    
  <Observation>
  <id value="3489-lab"/>
    <text>
      <status value="generated"/>
      <div xmlns="http://www.w3.org/1999/xhtml">2012-05-06: Chloride SerPl-sCnc = 105 mmol/L</div>
    </text>
    <code>
      <coding>
        <system value="http://loinc.org"/>
        <code value="2075-0"/>
        <display value="Chloride SerPl-sCnc"/>
      </coding>
      <text value="Chloride SerPl-sCnc"/>
    </code>
    <valueQuantity>
      <value value="105.0"/>
      <unit value="mmol/L"/>
      <system value="http://unitsofmeasure.org" />
      <code value=""/>
    </valueQuantity>
    
    <effectiveDateTime value="2012-05-06"/>
    <status value="final"/>
    <subject>
      <reference value="Patient/8888804"/>
    </subject>
  </Observation>
  
  </resource>
  <request>
    <method value="POST"/>
    <url value="Observation/3489-lab"/>
  </request>
</entry>
<entry>
  <resource>
    
    
  <Observation>
  <id value="3490-lab"/>
    <text>
      <status value="generated"/>
      <div xmlns="http://www.w3.org/1999/xhtml">2012-05-06: BUN SerPl-mCnc = 13 mg/dL</div>
    </text>
    <code>
      <coding>
        <system value="http://loinc.org"/>
        <code value="3094-0"/>
        <display value="BUN SerPl-mCnc"/>
      </coding>
      <text value="BUN SerPl-mCnc"/>
    </code>
    <valueQuantity>
      <value value="13.0"/>
      <unit value="mg/dL"/>
      <system value="http://unitsofmeasure.org" />
      <code value=""/>
    </valueQuantity>
    
    <effectiveDateTime value="2012-05-06"/>
    <status value="final"/>
    <subject>
      <reference value="Patient/8888804"/>
    </subject>
  </Observation>
  
  </resource>
  <request>
    <method value="POST"/>
    <url value="Observation/3490-lab"/>
  </request>
</entry>
<entry>
  <resource>
    
    
  <Observation>
  <id value="3491-lab"/>
    <text>
      <status value="generated"/>
      <div xmlns="http://www.w3.org/1999/xhtml">2012-05-06: Creat SerPl-mCnc = 0.89 mg/dL</div>
    </text>
    <code>
      <coding>
        <system value="http://loinc.org"/>
        <code value="2160-0"/>
        <display value="Creat SerPl-mCnc"/>
      </coding>
      <text value="Creat SerPl-mCnc"/>
    </code>
    <valueQuantity>
      <value value="0.89"/>
      <unit value="mg/dL"/>
      <system value="http://unitsofmeasure.org" />
      <code value=""/>
    </valueQuantity>
    
    <effectiveDateTime value="2012-05-06"/>
    <status value="final"/>
    <subject>
      <reference value="Patient/8888804"/>
    </subject>
  </Observation>
  
  </resource>
  <request>
    <method value="POST"/>
    <url value="Observation/3491-lab"/>
  </request>
</entry>
<entry>
  <resource>
    
    
  <Observation>
  <id value="3492-lab"/>
    <text>
      <status value="generated"/>
      <div xmlns="http://www.w3.org/1999/xhtml">2012-05-06: ALP SerPl-cCnc = 67 U/L</div>
    </text>
    <code>
      <coding>
        <system value="http://loinc.org"/>
        <code value="6768-6"/>
        <display value="ALP SerPl-cCnc"/>
      </coding>
      <text value="ALP SerPl-cCnc"/>
    </code>
    <valueQuantity>
      <value value="67.0"/>
      <unit value="U/L"/>
      <system value="http://unitsofmeasure.org" />
      <code value=""/>
    </valueQuantity>
    
    <effectiveDateTime value="2012-05-06"/>
    <status value="final"/>
    <subject>
      <reference value="Patient/8888804"/>
    </subject>
  </Observation>
  
  </resource>
  <request>
    <method value="POST"/>
    <url value="Observation/3492-lab"/>
  </request>
</entry>
<entry>
  <resource>
    
    
  <Observation>
  <id value="3493-lab"/>
    <text>
      <status value="generated"/>
      <div xmlns="http://www.w3.org/1999/xhtml">2012-05-06: ALT SerPl-cCnc = 30 U/L</div>
    </text>
    <code>
      <coding>
        <system value="http://loinc.org"/>
        <code value="1742-6"/>
        <display value="ALT SerPl-cCnc"/>
      </coding>
      <text value="ALT SerPl-cCnc"/>
    </code>
    <valueQuantity>
      <value value="30.0"/>
      <unit value="U/L"/>
      <system value="http://unitsofmeasure.org" />
      <code value=""/>
    </valueQuantity>
    
    <effectiveDateTime value="2012-05-06"/>
    <status value="final"/>
    <subject>
      <reference value="Patient/8888804"/>
    </subject>
  </Observation>
  
  </resource>
  <request>
    <method value="POST"/>
    <url value="Observation/3493-lab"/>
  </request>
</entry>
<entry>
  <resource>
    
    
  <Observation>
  <id value="3494-lab"/>
    <text>
      <status value="generated"/>
      <div xmlns="http://www.w3.org/1999/xhtml">2012-05-06: AST SerPl-cCnc = 24 U/L</div>
    </text>
    <code>
      <coding>
        <system value="http://loinc.org"/>
        <code value="1920-8"/>
        <display value="AST SerPl-cCnc"/>
      </coding>
      <text value="AST SerPl-cCnc"/>
    </code>
    <valueQuantity>
      <value value="24.0"/>
      <unit value="U/L"/>
      <system value="http://unitsofmeasure.org" />
      <code value=""/>
    </valueQuantity>
    
    <effectiveDateTime value="2012-05-06"/>
    <status value="final"/>
    <subject>
      <reference value="Patient/8888804"/>
    </subject>
  </Observation>
  
  </resource>
  <request>
    <method value="POST"/>
    <url value="Observation/3494-lab"/>
  </request>
</entry>
<entry>
  <resource>
    
    
  <Observation>
  <id value="3495-lab"/>
    <text>
      <status value="generated"/>
      <div xmlns="http://www.w3.org/1999/xhtml">2012-05-06: Bilirub SerPl-mCnc = 0.4 mg/dL</div>
    </text>
    <code>
      <coding>
        <system value="http://loinc.org"/>
        <code value="1975-2"/>
        <display value="Bilirub SerPl-mCnc"/>
      </coding>
      <text value="Bilirub SerPl-mCnc"/>
    </code>
    <valueQuantity>
      <value value="0.4"/>
      <unit value="mg/dL"/>
      <system value="http://unitsofmeasure.org" />
      <code value=""/>
    </valueQuantity>
    
    <effectiveDateTime value="2012-05-06"/>
    <status value="final"/>
    <subject>
      <reference value="Patient/8888804"/>
    </subject>
  </Observation>
  
  </resource>
  <request>
    <method value="POST"/>
    <url value="Observation/3495-lab"/>
  </request>
</entry>
<entry>
  <resource>
    
    
  <Observation>
  <id value="3496-lab"/>
    <text>
      <status value="generated"/>
      <div xmlns="http://www.w3.org/1999/xhtml">2012-05-06: PSA SerPl-mCnc = 0.85 ng/mL</div>
    </text>
    <code>
      <coding>
        <system value="http://loinc.org"/>
        <code value="2857-1"/>
        <display value="PSA SerPl-mCnc"/>
      </coding>
      <text value="PSA SerPl-mCnc"/>
    </code>
    <valueQuantity>
      <value value="0.85"/>
      <unit value="ng/mL"/>
      <system value="http://unitsofmeasure.org" />
      <code value=""/>
    </valueQuantity>
    
    <effectiveDateTime value="2012-05-06"/>
    <status value="final"/>
    <subject>
      <reference value="Patient/8888804"/>
    </subject>
  </Observation>
  
  </resource>
  <request>
    <method value="POST"/>
    <url value="Observation/3496-lab"/>
  </request>
</entry>
<entry>
  <resource>
    
    
  <Observation>
  <id value="3497-lab"/>
    <text>
      <status value="generated"/>
      <div xmlns="http://www.w3.org/1999/xhtml">2012-05-06: Urate SerPl-mCnc = 5.4 mg/dL</div>
    </text>
    <code>
      <coding>
        <system value="http://loinc.org"/>
        <code value="3084-1"/>
        <display value="Urate SerPl-mCnc"/>
      </coding>
      <text value="Urate SerPl-mCnc"/>
    </code>
    <valueQuantity>
      <value value="5.4"/>
      <unit value="mg/dL"/>
      <system value="http://unitsofmeasure.org" />
      <code value=""/>
    </valueQuantity>
    
    <effectiveDateTime value="2012-05-06"/>
    <status value="final"/>
    <subject>
      <reference value="Patient/8888804"/>
    </subject>
  </Observation>
  
  </resource>
  <request>
    <method value="POST"/>
    <url value="Observation/3497-lab"/>
  </request>
</entry>
<entry>
  <resource>
    
    
  <Observation>
  <id value="3498-lab"/>
    <extension url="http://fhir-registry.smarthealthit.org/StructureDefinition/labs#value-range" >
        <valueString value='[&#39;Negative&#39;, &#39;Positive&#39;]'/>
    </extension>
    
    <text>
      <status value="generated"/>
      <div xmlns="http://www.w3.org/1999/xhtml">2012-05-06: HIV1 Ab Ser Ql = Negative </div>
    </text>
    <code>
      <coding>
        <system value="http://loinc.org"/>
        <code value="7917-8"/>
        <display value="HIV1 Ab Ser Ql"/>
      </coding>
      <text value="HIV1 Ab Ser Ql"/>
    </code>
    <valueString value="Negative"/>
    
    <effectiveDateTime value="2012-05-06"/>
    <status value="final"/>
    <subject>
      <reference value="Patient/8888804"/>
    </subject>
  </Observation>
  
  </resource>
  <request>
    <method value="POST"/>
    <url value="Observation/3498-lab"/>
  </request>
</entry>
<entry>
  <resource>
    
    
  <Observation>
  <id value="3499-lab"/>
    <extension url="http://fhir-registry.smarthealthit.org/StructureDefinition/labs#value-range" >
        <valueString value='[&#39;Negative&#39;, &#39;Positive&#39;]'/>
    </extension>
    
    <text>
      <status value="generated"/>
      <div xmlns="http://www.w3.org/1999/xhtml">2012-05-06: RPR Ser Ql = Negative </div>
    </text>
    <code>
      <coding>
        <system value="http://loinc.org"/>
        <code value="20507-0"/>
        <display value="RPR Ser Ql"/>
      </coding>
      <text value="RPR Ser Ql"/>
    </code>
    <valueString value="Negative"/>
    
    <effectiveDateTime value="2012-05-06"/>
    <status value="final"/>
    <subject>
      <reference value="Patient/8888804"/>
    </subject>
  </Observation>
  
  </resource>
  <request>
    <method value="POST"/>
    <url value="Observation/3499-lab"/>
  </request>
</entry>
<entry>
  <resource>
    
    
  <Observation>
  <id value="3500-lab"/>
    <text>
      <status value="generated"/>
      <div xmlns="http://www.w3.org/1999/xhtml">2012-05-06: HSV 1 and 2 IgG Ser EIA-Imp = neg I, pos II </div>
    </text>
    <code>
      <coding>
        <system value="http://loinc.org"/>
        <code value="44009-9"/>
        <display value="HSV 1 and 2 IgG Ser EIA-Imp"/>
      </coding>
      <text value="HSV 1 and 2 IgG Ser EIA-Imp"/>
    </code>
    <valueString value="neg I, pos II"/>
    
    <effectiveDateTime value="2012-05-06"/>
    <status value="final"/>
    <subject>
      <reference value="Patient/8888804"/>
    </subject>
  </Observation>
  
  </resource>
  <request>
    <method value="POST"/>
    <url value="Observation/3500-lab"/>
  </request>
</entry>
<entry>
  <resource>
    
    
  <Observation>
  <id value="3501-lab"/>
    <extension url="http://fhir-registry.smarthealthit.org/StructureDefinition/labs#value-range" >
        <valueString value='[&#39;Negative&#39;, &#39;Positive&#39;]'/>
    </extension>
    
    <text>
      <status value="generated"/>
      <div xmlns="http://www.w3.org/1999/xhtml">2012-05-06: N gonorrhoea DNA Ur Ql PCR = Negative </div>
    </text>
    <code>
      <coding>
        <system value="http://loinc.org"/>
        <code value="21416-3"/>
        <display value="N gonorrhoea DNA Ur Ql PCR"/>
      </coding>
      <text value="N gonorrhoea DNA Ur Ql PCR"/>
    </code>
    <valueString value="Negative"/>
    
    <effectiveDateTime value="2012-05-06"/>
    <status value="final"/>
    <subject>
      <reference value="Patient/8888804"/>
    </subject>
  </Observation>
  
  </resource>
  <request>
    <method value="POST"/>
    <url value="Observation/3501-lab"/>
  </request>
</entry>
<entry>
  <resource>
    
    
  <Observation>
  <id value="3502-lab"/>
    <extension url="http://fhir-registry.smarthealthit.org/StructureDefinition/labs#value-range" >
        <valueString value='[&#39;Negative&#39;, &#39;Positive&#39;]'/>
    </extension>
    
    <text>
      <status value="generated"/>
      <div xmlns="http://www.w3.org/1999/xhtml">2012-05-06: Chlamydia DNA Ur Ql PCR = Negative </div>
    </text>
    <code>
      <coding>
        <system value="http://loinc.org"/>
        <code value="34708-8"/>
        <display value="Chlamydia DNA Ur Ql PCR"/>
      </coding>
      <text value="Chlamydia DNA Ur Ql PCR"/>
    </code>
    <valueString value="Negative"/>
    
    <effectiveDateTime value="2012-05-06"/>
    <status value="final"/>
    <subject>
      <reference value="Patient/8888804"/>
    </subject>
  </Observation>
  
  </resource>
  <request>
    <method value="POST"/>
    <url value="Observation/3502-lab"/>
  </request>
</entry>
<entry>
  <resource>
    
    
<MedicationOrder>
  <id value="288"/>
  <text>
    <status value="generated"/>
    <div xmlns="http://www.w3.org/1999/xhtml">
      Flomax 0.4 mg (rxnorm: 1169778)
    </div>
  </text>

  <status value="active" />
  <patient>
    <reference value="Patient/8888804"/>
  </patient>

  <medicationCodeableConcept>
    <coding>
        <system value="http://www.nlm.nih.gov/research/umls/rxnorm"/>
        <code value="1169778"/>
        <display value="Flomax 0.4 mg"/>
    </coding>
    <text value="Flomax 0.4 mg"/>
  </medicationCodeableConcept>

  <dosageInstruction>
    <timing>
    </timing>
    <text value="1 capsule po qd, 30 min. before a meal"/>
  </dosageInstruction>
</MedicationOrder>

  </resource>
  <request>
    <method value="POST"/>
    <url value="MedicationOrder/288"/>
  </request>
</entry>
<entry>
  <resource>
    
    
<MedicationOrder>
  <id value="289"/>
  <text>
    <status value="generated"/>
    <div xmlns="http://www.w3.org/1999/xhtml">
      Terazosin 5mg (rxnorm: 313219)
    </div>
  </text>

  <status value="active" />
  <patient>
    <reference value="Patient/8888804"/>
  </patient>

  <medicationCodeableConcept>
    <coding>
        <system value="http://www.nlm.nih.gov/research/umls/rxnorm"/>
        <code value="313219"/>
        <display value="Terazosin 5mg"/>
    </coding>
    <text value="Terazosin 5mg"/>
  </medicationCodeableConcept>

  <dosageInstruction>
    <timing>
    </timing>
    <text value="1 capsule po qd at bedtime"/>
  </dosageInstruction>
</MedicationOrder>

  </resource>
  <request>
    <method value="POST"/>
    <url value="MedicationOrder/289"/>
  </request>
</entry>
<entry>
  <resource>
    
    
<MedicationOrder>
  <id value="290"/>
  <text>
    <status value="generated"/>
    <div xmlns="http://www.w3.org/1999/xhtml">
      Naproxen 500mg (rxnorm: 198014)
    </div>
  </text>

  <status value="completed" />
  <patient>
    <reference value="Patient/8888804"/>
  </patient>

  <medicationCodeableConcept>
    <coding>
        <system value="http://www.nlm.nih.gov/research/umls/rxnorm"/>
        <code value="198014"/>
        <display value="Naproxen 500mg"/>
    </coding>
    <text value="Naproxen 500mg"/>
  </medicationCodeableConcept>

  <dosageInstruction>
    <timing>
    </timing>
    <text value="1 tab po bid for pain"/>
  </dosageInstruction>
</MedicationOrder>

  </resource>
  <request>
    <method value="POST"/>
    <url value="MedicationOrder/290"/>
  </request>
</entry>
<entry>
  <resource>
    
    
<MedicationOrder>
  <id value="291"/>
  <text>
    <status value="generated"/>
    <div xmlns="http://www.w3.org/1999/xhtml">
      Celebrex 200mg (rxnorm: 213469)
    </div>
  </text>

  <status value="active" />
  <patient>
    <reference value="Patient/8888804"/>
  </patient>

  <medicationCodeableConcept>
    <coding>
        <system value="http://www.nlm.nih.gov/research/umls/rxnorm"/>
        <code value="213469"/>
        <display value="Celebrex 200mg"/>
    </coding>
    <text value="Celebrex 200mg"/>
  </medicationCodeableConcept>

  <dosageInstruction>
    <timing>
    </timing>
    <text value="1 capsule po qd-bid for pain"/>
  </dosageInstruction>
</MedicationOrder>

  </resource>
  <request>
    <method value="POST"/>
    <url value="MedicationOrder/291"/>
  </request>
</entry>
<entry>
  <resource>
    
    
<MedicationOrder>
  <id value="292"/>
  <text>
    <status value="generated"/>
    <div xmlns="http://www.w3.org/1999/xhtml">
      Allopurinol 100mg (rxnorm: 197319)
    </div>
  </text>

  <status value="completed" />
  <patient>
    <reference value="Patient/8888804"/>
  </patient>

  <medicationCodeableConcept>
    <coding>
        <system value="http://www.nlm.nih.gov/research/umls/rxnorm"/>
        <code value="197319"/>
        <display value="Allopurinol 100mg"/>
    </coding>
    <text value="Allopurinol 100mg"/>
  </medicationCodeableConcept>

  <dosageInstruction>
    <timing>
    </timing>
    <text value="2 tabs po qd"/>
  </dosageInstruction>
</MedicationOrder>

  </resource>
  <request>
    <method value="POST"/>
    <url value="MedicationOrder/292"/>
  </request>
</entry>
<entry>
  <resource>
    
    
<MedicationOrder>
  <id value="293"/>
  <text>
    <status value="generated"/>
    <div xmlns="http://www.w3.org/1999/xhtml">
      Allopurinol 100mg (rxnorm: 197319)
    </div>
  </text>

  <status value="active" />
  <patient>
    <reference value="Patient/8888804"/>
  </patient>

  <medicationCodeableConcept>
    <coding>
        <system value="http://www.nlm.nih.gov/research/umls/rxnorm"/>
        <code value="197319"/>
        <display value="Allopurinol 100mg"/>
    </coding>
    <text value="Allopurinol 100mg"/>
  </medicationCodeableConcept>

  <dosageInstruction>
    <timing>
    </timing>
    <text value="3 tabs po qd"/>
  </dosageInstruction>
</MedicationOrder>

  </resource>
  <request>
    <method value="POST"/>
    <url value="MedicationOrder/293"/>
  </request>
</entry>
<entry>
  <resource>
    
    
<MedicationOrder>
  <id value="294"/>
  <text>
    <status value="generated"/>
    <div xmlns="http://www.w3.org/1999/xhtml">
      Metformin XR 500mg (rxnorm: 860975)
    </div>
  </text>

  <status value="active" />
  <patient>
    <reference value="Patient/8888804"/>
  </patient>

  <medicationCodeableConcept>
    <coding>
        <system value="http://www.nlm.nih.gov/research/umls/rxnorm"/>
        <code value="860975"/>
        <display value="Metformin XR 500mg"/>
    </coding>
    <text value="Metformin XR 500mg"/>
  </medicationCodeableConcept>

  <dosageInstruction>
    <timing>
    </timing>
    <text value="1 tab po qd with evening meal"/>
  </dosageInstruction>
</MedicationOrder>

  </resource>
  <request>
    <method value="POST"/>
    <url value="MedicationOrder/294"/>
  </request>
</entry>
  <entry>
  <resource>
    
    
  <Condition>
  <id value="553"/>
    <text>
     <status value="generated"/>
     <div xmlns="http://www.w3.org/1999/xhtml">Benign prostatic hypertrophy</div>   
   </text>
    <patient>
      <reference value="Patient/8888804"/>
    </patient>
    <code> 
      <coding>
        <system value="http://snomed.info/sct"/>
        <code value="266569009"/>
        <display value="Benign prostatic hypertrophy"/>
      </coding>
      <text value="Benign prostatic hypertrophy"/>
    </code>
   <clinicalStatus value="confirmed"/>
   <onsetDateTime value="2010"/>
   
  </Condition>
  
  </resource>
  <request>
    <method value="POST"/>
    <url value="Condition/553"/>
  </request>
</entry>
  <entry>
  <resource>
    
    
  <Condition>
  <id value="554"/>
    <text>
     <status value="generated"/>
     <div xmlns="http://www.w3.org/1999/xhtml">Joint pain, lower leg</div>   
   </text>
    <patient>
      <reference value="Patient/8888804"/>
    </patient>
    <code> 
      <coding>
        <system value="http://snomed.info/sct"/>
        <code value="267953003"/>
        <display value="Joint pain, lower leg"/>
      </coding>
      <text value="Joint pain, lower leg"/>
    </code>
   <clinicalStatus value="confirmed"/>
   <onsetDateTime value="2011-02-03"/>
   
  </Condition>
  
  </resource>
  <request>
    <method value="POST"/>
    <url value="Condition/554"/>
  </request>
</entry>
  <entry>
  <resource>
    
    
  <Condition>
  <id value="555"/>
    <text>
     <status value="generated"/>
     <div xmlns="http://www.w3.org/1999/xhtml">Gout</div>   
   </text>
    <patient>
      <reference value="Patient/8888804"/>
    </patient>
    <code> 
      <coding>
        <system value="http://snomed.info/sct"/>
        <code value="90560007"/>
        <display value="Gout"/>
      </coding>
      <text value="Gout"/>
    </code>
   <clinicalStatus value="confirmed"/>
   <onsetDateTime value="2000"/>
   
  </Condition>
  
  </resource>
  <request>
    <method value="POST"/>
    <url value="Condition/555"/>
  </request>
</entry>
  <entry>
  <resource>
    
    
  <Condition>
  <id value="556"/>
    <text>
     <status value="generated"/>
     <div xmlns="http://www.w3.org/1999/xhtml">Impaired fasting glucose</div>   
   </text>
    <patient>
      <reference value="Patient/8888804"/>
    </patient>
    <code> 
      <coding>
        <system value="http://snomed.info/sct"/>
        <code value="390951007"/>
        <display value="Impaired fasting glucose"/>
      </coding>
      <text value="Impaired fasting glucose"/>
    </code>
   <clinicalStatus value="confirmed"/>
   <onsetDateTime value="2012-11-09"/>
   
  </Condition>
  
  </resource>
  <request>
    <method value="POST"/>
    <url value="Condition/556"/>
  </request>
</entry>
  <entry>
  <resource>
    
    
    <Immunization>
  <id value="24"/>
        <text>
            <status value="generated"/>
            <div xmlns="http://www.w3.org/1999/xhtml">TdaP</div>
        </text>
        <patient>
            <reference value="Patient/8888804"/>
        </patient>
        <date value="2011-07-12"/>
        <vaccineCode>
            <coding>
                <system value="http://www2a.cdc.gov/vaccines/IIS/IISStandards/vaccines.asp?rpt=cvx"/>
                <code value="115"/>
                <display value="TdaP"/>
            </coding>
        </vaccineCode>
        <reported value="false"/>
        <wasNotGiven value="false"/>
    </Immunization>
  
  </resource>
  <request>
    <method value="POST"/>
    <url value="Immunization/24"/>
  </request>
</entry>
  <entry>
  <resource>
    
    
    <Immunization>
  <id value="25"/>
        <text>
            <status value="generated"/>
            <div xmlns="http://www.w3.org/1999/xhtml">Flu Vaccine</div>
        </text>
        <patient>
            <reference value="Patient/8888804"/>
        </patient>
        <date value="2012-01-17"/>
        <vaccineCode>
            <coding>
                <system value="http://www2a.cdc.gov/vaccines/IIS/IISStandards/vaccines.asp?rpt=cvx"/>
                <code value="141"/>
                <display value="Flu Vaccine"/>
            </coding>
        </vaccineCode>
        <reported value="false"/>
        <wasNotGiven value="false"/>
    </Immunization>
  
  </resource>
  <request>
    <method value="POST"/>
    <url value="Immunization/25"/>
  </request>
</entry>
  <entry>
  <resource>
    
    
    <Immunization>
  <id value="26"/>
        <text>
            <status value="generated"/>
            <div xmlns="http://www.w3.org/1999/xhtml">Zostavax</div>
        </text>
        <patient>
            <reference value="Patient/8888804"/>
        </patient>
        <date value="2012-01-17"/>
        <vaccineCode>
            <coding>
                <system value="http://www2a.cdc.gov/vaccines/IIS/IISStandards/vaccines.asp?rpt=cvx"/>
                <code value="121"/>
                <display value="Zostavax"/>
            </coding>
        </vaccineCode>
        <reported value="false"/>
        <wasNotGiven value="false"/>
    </Immunization>
  
  </resource>
  <request>
    <method value="POST"/>
    <url value="Immunization/26"/>
  </request>
</entry>
  <entry>
  <resource>
    
    
    <Immunization>
  <id value="27"/>
        <text>
            <status value="generated"/>
            <div xmlns="http://www.w3.org/1999/xhtml">Flu Vaccine</div>
        </text>
        <patient>
            <reference value="Patient/8888804"/>
        </patient>
        <date value="2012-11-09"/>
        <vaccineCode>
            <coding>
                <system value="http://www2a.cdc.gov/vaccines/IIS/IISStandards/vaccines.asp?rpt=cvx"/>
                <code value="141"/>
                <display value="Flu Vaccine"/>
            </coding>
        </vaccineCode>
        <reported value="false"/>
        <wasNotGiven value="false"/>
    </Immunization>
  
  </resource>
  <request>
    <method value="POST"/>
    <url value="Immunization/27"/>
  </request>
</entry>
  <entry>
  <resource>
    
    
    <List>
  <id value="62"/>
        <text>
            <status value="generated"/>
            <div xmlns="http://www.w3.org/1999/xhtml">No known history of drug allergy</div>
        </text>
        <code>
            <coding>
               <system value="http://loinc.org/"/>
               <code value="11382-9"/>
               <display value="Medication allergy"/>
            </coding>
            <text value="Medication allergy"/>
        </code>
        <subject>
          <reference value="Patient/8888804"/>
        </subject>
        <date value="2010"/>
        <mode value="snapshot"/>
        <emptyReason>
            <coding>
                <system value="http://hl7.org/fhir/list-empty-reason"/>
                <code value="nilknown"/>
                <display value="Nil Known"/>
            </coding>
            <text value="Nil Known"/>
        </emptyReason>
    </List>
  
  </resource>
  <request>
    <method value="POST"/>
    <url value="List/62"/>
  </request>
</entry>

</Bundle>
