<?xml version="1.0" encoding="UTF-8"?>
<Bundle xmlns="http://hl7.org/fhir">
    <type value="transaction"/>

  <entry>
  <resource>
    
    
  <Patient>
    <id value="ID8888804"/>
    <text>
      <status value="generated"/>
      <div xmlns="http://www.w3.org/1999/xhtml">
        <p>George McKay</p>
      </div>
    </text>
    <identifier>
      <use value="usual"/>
      <type>
        <coding>
          <system value="http://hl7.org/fhir/v2/0203"/>
          <code value="MR"/>
          <display value="Medical record number"/>
        </coding>
      </type>
      <system value="http://hospital.smarthealthit.org"/>
      <value value="8888804"/>
    </identifier>
    <name>
      <use value="official"/>
      <family value="McKay"/>
      <given value="George"/>
    </name>
    <gender value="male" />
    <birthDate value="1950-07-06" />
    <active value="true"/>
  </Patient>
  
  </resource>
  <transaction>
    <method value="PUT"/>
    <url value="Patient/ID8888804"/>
  </transaction>
</entry>
  <entry>
  <resource>
    
    
    <Encounter>
  <id value="ID961"/>
      <text>
        <status value="generated"/>
        <div xmlns="http://www.w3.org/1999/xhtml">2010-06-04: ambulatory encounter</div>
      </text>
      <status value="finished"/>
      <class value="ambulatory"/>
      <patient>
        <reference value="Patient/ID8888804"/>
      </patient>
      <period>
       <start value="2010-06-04"/>
       <end value="2010-06-04"/>
      </period>
    </Encounter>
  
  </resource>
  <transaction>
    <method value="PUT"/>
    <url value="Encounter/ID961"/>
  </transaction>
</entry>
  <entry>
  <resource>
    
    
    <Encounter>
  <id value="ID962"/>
      <text>
        <status value="generated"/>
        <div xmlns="http://www.w3.org/1999/xhtml">2011-02-03: ambulatory encounter</div>
      </text>
      <status value="finished"/>
      <class value="ambulatory"/>
      <patient>
        <reference value="Patient/ID8888804"/>
      </patient>
      <period>
       <start value="2011-02-03"/>
       <end value="2011-02-03"/>
      </period>
    </Encounter>
  
  </resource>
  <transaction>
    <method value="PUT"/>
    <url value="Encounter/ID962"/>
  </transaction>
</entry>
  <entry>
  <resource>
    
    
    <Encounter>
  <id value="ID963"/>
      <text>
        <status value="generated"/>
        <div xmlns="http://www.w3.org/1999/xhtml">2011-07-12: ambulatory encounter</div>
      </text>
      <status value="finished"/>
      <class value="ambulatory"/>
      <patient>
        <reference value="Patient/ID8888804"/>
      </patient>
      <period>
       <start value="2011-07-12"/>
       <end value="2011-07-12"/>
      </period>
    </Encounter>
  
  </resource>
  <transaction>
    <method value="PUT"/>
    <url value="Encounter/ID963"/>
  </transaction>
</entry>
  <entry>
  <resource>
    
    
    <Encounter>
  <id value="ID964"/>
      <text>
        <status value="generated"/>
        <div xmlns="http://www.w3.org/1999/xhtml">2012-01-17: ambulatory encounter</div>
      </text>
      <status value="finished"/>
      <class value="ambulatory"/>
      <patient>
        <reference value="Patient/ID8888804"/>
      </patient>
      <period>
       <start value="2012-01-17"/>
       <end value="2012-01-17"/>
      </period>
    </Encounter>
  
  </resource>
  <transaction>
    <method value="PUT"/>
    <url value="Encounter/ID964"/>
  </transaction>
</entry>
  <entry>
  <resource>
    
    
    <Encounter>
  <id value="ID965"/>
      <text>
        <status value="generated"/>
        <div xmlns="http://www.w3.org/1999/xhtml">2012-05-06: ambulatory encounter</div>
      </text>
      <status value="finished"/>
      <class value="ambulatory"/>
      <patient>
        <reference value="Patient/ID8888804"/>
      </patient>
      <period>
       <start value="2012-05-06"/>
       <end value="2012-05-06"/>
      </period>
    </Encounter>
  
  </resource>
  <transaction>
    <method value="PUT"/>
    <url value="Encounter/ID965"/>
  </transaction>
</entry>
  <entry>
  <resource>
    
    
    <Encounter>
  <id value="ID966"/>
      <text>
        <status value="generated"/>
        <div xmlns="http://www.w3.org/1999/xhtml">2012-11-09: ambulatory encounter</div>
      </text>
      <status value="finished"/>
      <class value="ambulatory"/>
      <patient>
        <reference value="Patient/ID8888804"/>
      </patient>
      <period>
       <start value="2012-11-09"/>
       <end value="2012-11-09"/>
      </period>
    </Encounter>
  
  </resource>
  <transaction>
    <method value="PUT"/>
    <url value="Encounter/ID966"/>
  </transaction>
</entry>
  <entry>
  <resource>
    
    
  <Observation>
    <id value="ID961-bp"/>
    <text>
      <status value="generated"/>
      <div xmlns="http://www.w3.org/1999/xhtml">2010-06-04: Blood pressure 136/92 mmHg</div>
    </text>
    <code>
      <coding>
        <system value="http://loinc.org"/>
        <code value="55284-4"/>
        <display value="Blood pressure systolic and diastolic"/>
      </coding>
    </code>
    <appliesDateTime value="2010-06-04"/>
    <status value="final"/>
    <reliability value="ok"/>
    <subject>
      <reference value="Patient/ID8888804"/>
    </subject>
    <related>
      <type value="has-component"/>
      <target>
        <reference value="Observation/ID961-systolic"/>
      </target>
    </related>
    <related>
      <type value="has-component"/>
      <target>
        <reference value="Observation/ID961-diastolic"/>
      </target>
    </related>
    <encounter>
      <reference value="Encounter/ID961"/>
    </encounter>
    

  </Observation>
  
  </resource>
  <transaction>
    <method value="PUT"/>
    <url value="Observation/ID961-bp"/>
  </transaction>
</entry>
<entry>
  <resource>
    
    
  <Observation>
  <id value="ID961-systolic"/>
    <text>
      <status value="generated"/>
      <div xmlns="http://www.w3.org/1999/xhtml">2010-06-04: Systolic blood pressure = 136 mm[Hg]</div>
    </text>
    <code>
      <coding>
        <system value="http://loinc.org"/>
        <code value="8480-6"/>
        <display value="Systolic blood pressure"/>
      </coding>
    </code>
    <valueQuantity>
      <value value="136.0"/>
      <units value="mm[Hg]"/>
      <system value="http://unitsofmeasure.org" />
      <code value="mm[Hg]"/>
    </valueQuantity>
    
    <appliesDateTime value="2010-06-04"/>
    <status value="final"/>
    <reliability value="ok"/>
    <subject>
      <reference value="Patient/ID8888804"/>
    </subject>
  </Observation>
  
  </resource>
  <transaction>
    <method value="PUT"/>
    <url value="Observation/ID961-systolic"/>
  </transaction>
</entry>
<entry>
  <resource>
    
    
  <Observation>
  <id value="ID961-diastolic"/>
    <text>
      <status value="generated"/>
      <div xmlns="http://www.w3.org/1999/xhtml">2010-06-04: Diastolic blood pressure = 92 mm[Hg]</div>
    </text>
    <code>
      <coding>
        <system value="http://loinc.org"/>
        <code value="8462-4"/>
        <display value="Diastolic blood pressure"/>
      </coding>
    </code>
    <valueQuantity>
      <value value="92.0"/>
      <units value="mm[Hg]"/>
      <system value="http://unitsofmeasure.org" />
      <code value="mm[Hg]"/>
    </valueQuantity>
    
    <appliesDateTime value="2010-06-04"/>
    <status value="final"/>
    <reliability value="ok"/>
    <subject>
      <reference value="Patient/ID8888804"/>
    </subject>
  </Observation>
  
  </resource>
  <transaction>
    <method value="PUT"/>
    <url value="Observation/ID961-diastolic"/>
  </transaction>
</entry>
  <entry>
  <resource>
    
    
  <Observation>
    <id value="ID962-bp"/>
    <text>
      <status value="generated"/>
      <div xmlns="http://www.w3.org/1999/xhtml">2011-02-03: Blood pressure 126/82 mmHg</div>
    </text>
    <code>
      <coding>
        <system value="http://loinc.org"/>
        <code value="55284-4"/>
        <display value="Blood pressure systolic and diastolic"/>
      </coding>
    </code>
    <appliesDateTime value="2011-02-03"/>
    <status value="final"/>
    <reliability value="ok"/>
    <subject>
      <reference value="Patient/ID8888804"/>
    </subject>
    <related>
      <type value="has-component"/>
      <target>
        <reference value="Observation/ID962-systolic"/>
      </target>
    </related>
    <related>
      <type value="has-component"/>
      <target>
        <reference value="Observation/ID962-diastolic"/>
      </target>
    </related>
    <encounter>
      <reference value="Encounter/ID962"/>
    </encounter>
    

  </Observation>
  
  </resource>
  <transaction>
    <method value="PUT"/>
    <url value="Observation/ID962-bp"/>
  </transaction>
</entry>
<entry>
  <resource>
    
    
  <Observation>
  <id value="ID962-systolic"/>
    <text>
      <status value="generated"/>
      <div xmlns="http://www.w3.org/1999/xhtml">2011-02-03: Systolic blood pressure = 126 mm[Hg]</div>
    </text>
    <code>
      <coding>
        <system value="http://loinc.org"/>
        <code value="8480-6"/>
        <display value="Systolic blood pressure"/>
      </coding>
    </code>
    <valueQuantity>
      <value value="126.0"/>
      <units value="mm[Hg]"/>
      <system value="http://unitsofmeasure.org" />
      <code value="mm[Hg]"/>
    </valueQuantity>
    
    <appliesDateTime value="2011-02-03"/>
    <status value="final"/>
    <reliability value="ok"/>
    <subject>
      <reference value="Patient/ID8888804"/>
    </subject>
  </Observation>
  
  </resource>
  <transaction>
    <method value="PUT"/>
    <url value="Observation/ID962-systolic"/>
  </transaction>
</entry>
<entry>
  <resource>
    
    
  <Observation>
  <id value="ID962-diastolic"/>
    <text>
      <status value="generated"/>
      <div xmlns="http://www.w3.org/1999/xhtml">2011-02-03: Diastolic blood pressure = 82 mm[Hg]</div>
    </text>
    <code>
      <coding>
        <system value="http://loinc.org"/>
        <code value="8462-4"/>
        <display value="Diastolic blood pressure"/>
      </coding>
    </code>
    <valueQuantity>
      <value value="82.0"/>
      <units value="mm[Hg]"/>
      <system value="http://unitsofmeasure.org" />
      <code value="mm[Hg]"/>
    </valueQuantity>
    
    <appliesDateTime value="2011-02-03"/>
    <status value="final"/>
    <reliability value="ok"/>
    <subject>
      <reference value="Patient/ID8888804"/>
    </subject>
  </Observation>
  
  </resource>
  <transaction>
    <method value="PUT"/>
    <url value="Observation/ID962-diastolic"/>
  </transaction>
</entry>
  <entry>
  <resource>
    
    
  <Observation>
    <id value="ID963-bp"/>
    <text>
      <status value="generated"/>
      <div xmlns="http://www.w3.org/1999/xhtml">2011-07-12: Blood pressure 122/80 mmHg</div>
    </text>
    <code>
      <coding>
        <system value="http://loinc.org"/>
        <code value="55284-4"/>
        <display value="Blood pressure systolic and diastolic"/>
      </coding>
    </code>
    <appliesDateTime value="2011-07-12"/>
    <status value="final"/>
    <reliability value="ok"/>
    <subject>
      <reference value="Patient/ID8888804"/>
    </subject>
    <related>
      <type value="has-component"/>
      <target>
        <reference value="Observation/ID963-systolic"/>
      </target>
    </related>
    <related>
      <type value="has-component"/>
      <target>
        <reference value="Observation/ID963-diastolic"/>
      </target>
    </related>
    <encounter>
      <reference value="Encounter/ID963"/>
    </encounter>
    

  </Observation>
  
  </resource>
  <transaction>
    <method value="PUT"/>
    <url value="Observation/ID963-bp"/>
  </transaction>
</entry>
<entry>
  <resource>
    
    
  <Observation>
  <id value="ID963-systolic"/>
    <text>
      <status value="generated"/>
      <div xmlns="http://www.w3.org/1999/xhtml">2011-07-12: Systolic blood pressure = 122 mm[Hg]</div>
    </text>
    <code>
      <coding>
        <system value="http://loinc.org"/>
        <code value="8480-6"/>
        <display value="Systolic blood pressure"/>
      </coding>
    </code>
    <valueQuantity>
      <value value="122.0"/>
      <units value="mm[Hg]"/>
      <system value="http://unitsofmeasure.org" />
      <code value="mm[Hg]"/>
    </valueQuantity>
    
    <appliesDateTime value="2011-07-12"/>
    <status value="final"/>
    <reliability value="ok"/>
    <subject>
      <reference value="Patient/ID8888804"/>
    </subject>
  </Observation>
  
  </resource>
  <transaction>
    <method value="PUT"/>
    <url value="Observation/ID963-systolic"/>
  </transaction>
</entry>
<entry>
  <resource>
    
    
  <Observation>
  <id value="ID963-diastolic"/>
    <text>
      <status value="generated"/>
      <div xmlns="http://www.w3.org/1999/xhtml">2011-07-12: Diastolic blood pressure = 80 mm[Hg]</div>
    </text>
    <code>
      <coding>
        <system value="http://loinc.org"/>
        <code value="8462-4"/>
        <display value="Diastolic blood pressure"/>
      </coding>
    </code>
    <valueQuantity>
      <value value="80.0"/>
      <units value="mm[Hg]"/>
      <system value="http://unitsofmeasure.org" />
      <code value="mm[Hg]"/>
    </valueQuantity>
    
    <appliesDateTime value="2011-07-12"/>
    <status value="final"/>
    <reliability value="ok"/>
    <subject>
      <reference value="Patient/ID8888804"/>
    </subject>
  </Observation>
  
  </resource>
  <transaction>
    <method value="PUT"/>
    <url value="Observation/ID963-diastolic"/>
  </transaction>
</entry>
  <entry>
  <resource>
    
    
  <Observation>
    <id value="ID964-bp"/>
    <text>
      <status value="generated"/>
      <div xmlns="http://www.w3.org/1999/xhtml">2012-01-17: Blood pressure 130/82 mmHg</div>
    </text>
    <code>
      <coding>
        <system value="http://loinc.org"/>
        <code value="55284-4"/>
        <display value="Blood pressure systolic and diastolic"/>
      </coding>
    </code>
    <appliesDateTime value="2012-01-17"/>
    <status value="final"/>
    <reliability value="ok"/>
    <subject>
      <reference value="Patient/ID8888804"/>
    </subject>
    <related>
      <type value="has-component"/>
      <target>
        <reference value="Observation/ID964-systolic"/>
      </target>
    </related>
    <related>
      <type value="has-component"/>
      <target>
        <reference value="Observation/ID964-diastolic"/>
      </target>
    </related>
    <encounter>
      <reference value="Encounter/ID964"/>
    </encounter>
    

  </Observation>
  
  </resource>
  <transaction>
    <method value="PUT"/>
    <url value="Observation/ID964-bp"/>
  </transaction>
</entry>
<entry>
  <resource>
    
    
  <Observation>
  <id value="ID964-systolic"/>
    <text>
      <status value="generated"/>
      <div xmlns="http://www.w3.org/1999/xhtml">2012-01-17: Systolic blood pressure = 130 mm[Hg]</div>
    </text>
    <code>
      <coding>
        <system value="http://loinc.org"/>
        <code value="8480-6"/>
        <display value="Systolic blood pressure"/>
      </coding>
    </code>
    <valueQuantity>
      <value value="130.0"/>
      <units value="mm[Hg]"/>
      <system value="http://unitsofmeasure.org" />
      <code value="mm[Hg]"/>
    </valueQuantity>
    
    <appliesDateTime value="2012-01-17"/>
    <status value="final"/>
    <reliability value="ok"/>
    <subject>
      <reference value="Patient/ID8888804"/>
    </subject>
  </Observation>
  
  </resource>
  <transaction>
    <method value="PUT"/>
    <url value="Observation/ID964-systolic"/>
  </transaction>
</entry>
<entry>
  <resource>
    
    
  <Observation>
  <id value="ID964-diastolic"/>
    <text>
      <status value="generated"/>
      <div xmlns="http://www.w3.org/1999/xhtml">2012-01-17: Diastolic blood pressure = 82 mm[Hg]</div>
    </text>
    <code>
      <coding>
        <system value="http://loinc.org"/>
        <code value="8462-4"/>
        <display value="Diastolic blood pressure"/>
      </coding>
    </code>
    <valueQuantity>
      <value value="82.0"/>
      <units value="mm[Hg]"/>
      <system value="http://unitsofmeasure.org" />
      <code value="mm[Hg]"/>
    </valueQuantity>
    
    <appliesDateTime value="2012-01-17"/>
    <status value="final"/>
    <reliability value="ok"/>
    <subject>
      <reference value="Patient/ID8888804"/>
    </subject>
  </Observation>
  
  </resource>
  <transaction>
    <method value="PUT"/>
    <url value="Observation/ID964-diastolic"/>
  </transaction>
</entry>
  <entry>
  <resource>
    
    
  <Observation>
    <id value="ID965-bp"/>
    <text>
      <status value="generated"/>
      <div xmlns="http://www.w3.org/1999/xhtml">2012-05-06: Blood pressure 132/80 mmHg</div>
    </text>
    <code>
      <coding>
        <system value="http://loinc.org"/>
        <code value="55284-4"/>
        <display value="Blood pressure systolic and diastolic"/>
      </coding>
    </code>
    <appliesDateTime value="2012-05-06"/>
    <status value="final"/>
    <reliability value="ok"/>
    <subject>
      <reference value="Patient/ID8888804"/>
    </subject>
    <related>
      <type value="has-component"/>
      <target>
        <reference value="Observation/ID965-systolic"/>
      </target>
    </related>
    <related>
      <type value="has-component"/>
      <target>
        <reference value="Observation/ID965-diastolic"/>
      </target>
    </related>
    <encounter>
      <reference value="Encounter/ID965"/>
    </encounter>
    

  </Observation>
  
  </resource>
  <transaction>
    <method value="PUT"/>
    <url value="Observation/ID965-bp"/>
  </transaction>
</entry>
<entry>
  <resource>
    
    
  <Observation>
  <id value="ID965-systolic"/>
    <text>
      <status value="generated"/>
      <div xmlns="http://www.w3.org/1999/xhtml">2012-05-06: Systolic blood pressure = 132 mm[Hg]</div>
    </text>
    <code>
      <coding>
        <system value="http://loinc.org"/>
        <code value="8480-6"/>
        <display value="Systolic blood pressure"/>
      </coding>
    </code>
    <valueQuantity>
      <value value="132.0"/>
      <units value="mm[Hg]"/>
      <system value="http://unitsofmeasure.org" />
      <code value="mm[Hg]"/>
    </valueQuantity>
    
    <appliesDateTime value="2012-05-06"/>
    <status value="final"/>
    <reliability value="ok"/>
    <subject>
      <reference value="Patient/ID8888804"/>
    </subject>
  </Observation>
  
  </resource>
  <transaction>
    <method value="PUT"/>
    <url value="Observation/ID965-systolic"/>
  </transaction>
</entry>
<entry>
  <resource>
    
    
  <Observation>
  <id value="ID965-diastolic"/>
    <text>
      <status value="generated"/>
      <div xmlns="http://www.w3.org/1999/xhtml">2012-05-06: Diastolic blood pressure = 80 mm[Hg]</div>
    </text>
    <code>
      <coding>
        <system value="http://loinc.org"/>
        <code value="8462-4"/>
        <display value="Diastolic blood pressure"/>
      </coding>
    </code>
    <valueQuantity>
      <value value="80.0"/>
      <units value="mm[Hg]"/>
      <system value="http://unitsofmeasure.org" />
      <code value="mm[Hg]"/>
    </valueQuantity>
    
    <appliesDateTime value="2012-05-06"/>
    <status value="final"/>
    <reliability value="ok"/>
    <subject>
      <reference value="Patient/ID8888804"/>
    </subject>
  </Observation>
  
  </resource>
  <transaction>
    <method value="PUT"/>
    <url value="Observation/ID965-diastolic"/>
  </transaction>
</entry>
  <entry>
  <resource>
    
    
  <Observation>
    <id value="ID966-bp"/>
    <text>
      <status value="generated"/>
      <div xmlns="http://www.w3.org/1999/xhtml">2012-11-09: Blood pressure 130/84 mmHg</div>
    </text>
    <code>
      <coding>
        <system value="http://loinc.org"/>
        <code value="55284-4"/>
        <display value="Blood pressure systolic and diastolic"/>
      </coding>
    </code>
    <appliesDateTime value="2012-11-09"/>
    <status value="final"/>
    <reliability value="ok"/>
    <subject>
      <reference value="Patient/ID8888804"/>
    </subject>
    <related>
      <type value="has-component"/>
      <target>
        <reference value="Observation/ID966-systolic"/>
      </target>
    </related>
    <related>
      <type value="has-component"/>
      <target>
        <reference value="Observation/ID966-diastolic"/>
      </target>
    </related>
    <encounter>
      <reference value="Encounter/ID966"/>
    </encounter>
    

  </Observation>
  
  </resource>
  <transaction>
    <method value="PUT"/>
    <url value="Observation/ID966-bp"/>
  </transaction>
</entry>
<entry>
  <resource>
    
    
  <Observation>
  <id value="ID966-systolic"/>
    <text>
      <status value="generated"/>
      <div xmlns="http://www.w3.org/1999/xhtml">2012-11-09: Systolic blood pressure = 130 mm[Hg]</div>
    </text>
    <code>
      <coding>
        <system value="http://loinc.org"/>
        <code value="8480-6"/>
        <display value="Systolic blood pressure"/>
      </coding>
    </code>
    <valueQuantity>
      <value value="130.0"/>
      <units value="mm[Hg]"/>
      <system value="http://unitsofmeasure.org" />
      <code value="mm[Hg]"/>
    </valueQuantity>
    
    <appliesDateTime value="2012-11-09"/>
    <status value="final"/>
    <reliability value="ok"/>
    <subject>
      <reference value="Patient/ID8888804"/>
    </subject>
  </Observation>
  
  </resource>
  <transaction>
    <method value="PUT"/>
    <url value="Observation/ID966-systolic"/>
  </transaction>
</entry>
<entry>
  <resource>
    
    
  <Observation>
  <id value="ID966-diastolic"/>
    <text>
      <status value="generated"/>
      <div xmlns="http://www.w3.org/1999/xhtml">2012-11-09: Diastolic blood pressure = 84 mm[Hg]</div>
    </text>
    <code>
      <coding>
        <system value="http://loinc.org"/>
        <code value="8462-4"/>
        <display value="Diastolic blood pressure"/>
      </coding>
    </code>
    <valueQuantity>
      <value value="84.0"/>
      <units value="mm[Hg]"/>
      <system value="http://unitsofmeasure.org" />
      <code value="mm[Hg]"/>
    </valueQuantity>
    
    <appliesDateTime value="2012-11-09"/>
    <status value="final"/>
    <reliability value="ok"/>
    <subject>
      <reference value="Patient/ID8888804"/>
    </subject>
  </Observation>
  
  </resource>
  <transaction>
    <method value="PUT"/>
    <url value="Observation/ID966-diastolic"/>
  </transaction>
</entry>
<entry>
  <resource>
    
    
  <Observation>
  <id value="ID961-height"/>
    <text>
      <status value="generated"/>
      <div xmlns="http://www.w3.org/1999/xhtml">2010-06-04: height = 178.0 cm</div>
    </text>
    <code>
      <coding>
        <system value="http://loinc.org"/>
        <code value="8302-2"/>
        <display value="height"/>
      </coding>
    </code>
    <valueQuantity>
      <value value="178.0"/>
      <units value="cm"/>
      <system value="http://unitsofmeasure.org" />
      <code value="cm"/>
    </valueQuantity>
    
    <appliesDateTime value="2010-06-04"/>
    <status value="final"/>
    <reliability value="ok"/>
    <subject>
      <reference value="Patient/ID8888804"/>
    </subject>
    <encounter>
      <reference value="Encounter/ID961"/>
    </encounter>
    
  </Observation>
  
  </resource>
  <transaction>
    <method value="PUT"/>
    <url value="Observation/ID961-height"/>
  </transaction>
</entry>
<entry>
  <resource>
    
    
  <Observation>
  <id value="ID961-weight"/>
    <text>
      <status value="generated"/>
      <div xmlns="http://www.w3.org/1999/xhtml">2010-06-04: weight = 99.8 kg</div>
    </text>
    <code>
      <coding>
        <system value="http://loinc.org"/>
        <code value="3141-9"/>
        <display value="weight"/>
      </coding>
    </code>
    <valueQuantity>
      <value value="99.8"/>
      <units value="kg"/>
      <system value="http://unitsofmeasure.org" />
      <code value="kg"/>
    </valueQuantity>
    
    <appliesDateTime value="2010-06-04"/>
    <status value="final"/>
    <reliability value="ok"/>
    <subject>
      <reference value="Patient/ID8888804"/>
    </subject>
    <encounter>
      <reference value="Encounter/ID961"/>
    </encounter>
    
  </Observation>
  
  </resource>
  <transaction>
    <method value="PUT"/>
    <url value="Observation/ID961-weight"/>
  </transaction>
</entry>
<entry>
  <resource>
    
    
  <Observation>
  <id value="ID961-bmi"/>
    <text>
      <status value="generated"/>
      <div xmlns="http://www.w3.org/1999/xhtml">2010-06-04: bmi = 31.6 kg/m2</div>
    </text>
    <code>
      <coding>
        <system value="http://loinc.org"/>
        <code value="39156-5"/>
        <display value="bmi"/>
      </coding>
    </code>
    <valueQuantity>
      <value value="31.6"/>
      <units value="kg/m2"/>
      <system value="http://unitsofmeasure.org" />
      <code value="kg/m2"/>
    </valueQuantity>
    
    <appliesDateTime value="2010-06-04"/>
    <status value="final"/>
    <reliability value="ok"/>
    <subject>
      <reference value="Patient/ID8888804"/>
    </subject>
    <encounter>
      <reference value="Encounter/ID961"/>
    </encounter>
    
  </Observation>
  
  </resource>
  <transaction>
    <method value="PUT"/>
    <url value="Observation/ID961-bmi"/>
  </transaction>
</entry>
<entry>
  <resource>
    
    
  <Observation>
  <id value="ID962-height"/>
    <text>
      <status value="generated"/>
      <div xmlns="http://www.w3.org/1999/xhtml">2011-02-03: height = 178.0 cm</div>
    </text>
    <code>
      <coding>
        <system value="http://loinc.org"/>
        <code value="8302-2"/>
        <display value="height"/>
      </coding>
    </code>
    <valueQuantity>
      <value value="178.0"/>
      <units value="cm"/>
      <system value="http://unitsofmeasure.org" />
      <code value="cm"/>
    </valueQuantity>
    
    <appliesDateTime value="2011-02-03"/>
    <status value="final"/>
    <reliability value="ok"/>
    <subject>
      <reference value="Patient/ID8888804"/>
    </subject>
    <encounter>
      <reference value="Encounter/ID962"/>
    </encounter>
    
  </Observation>
  
  </resource>
  <transaction>
    <method value="PUT"/>
    <url value="Observation/ID962-height"/>
  </transaction>
</entry>
<entry>
  <resource>
    
    
  <Observation>
  <id value="ID962-weight"/>
    <text>
      <status value="generated"/>
      <div xmlns="http://www.w3.org/1999/xhtml">2011-02-03: weight = 95.3 kg</div>
    </text>
    <code>
      <coding>
        <system value="http://loinc.org"/>
        <code value="3141-9"/>
        <display value="weight"/>
      </coding>
    </code>
    <valueQuantity>
      <value value="95.3"/>
      <units value="kg"/>
      <system value="http://unitsofmeasure.org" />
      <code value="kg"/>
    </valueQuantity>
    
    <appliesDateTime value="2011-02-03"/>
    <status value="final"/>
    <reliability value="ok"/>
    <subject>
      <reference value="Patient/ID8888804"/>
    </subject>
    <encounter>
      <reference value="Encounter/ID962"/>
    </encounter>
    
  </Observation>
  
  </resource>
  <transaction>
    <method value="PUT"/>
    <url value="Observation/ID962-weight"/>
  </transaction>
</entry>
<entry>
  <resource>
    
    
  <Observation>
  <id value="ID962-bmi"/>
    <text>
      <status value="generated"/>
      <div xmlns="http://www.w3.org/1999/xhtml">2011-02-03: bmi = 30.1 kg/m2</div>
    </text>
    <code>
      <coding>
        <system value="http://loinc.org"/>
        <code value="39156-5"/>
        <display value="bmi"/>
      </coding>
    </code>
    <valueQuantity>
      <value value="30.1"/>
      <units value="kg/m2"/>
      <system value="http://unitsofmeasure.org" />
      <code value="kg/m2"/>
    </valueQuantity>
    
    <appliesDateTime value="2011-02-03"/>
    <status value="final"/>
    <reliability value="ok"/>
    <subject>
      <reference value="Patient/ID8888804"/>
    </subject>
    <encounter>
      <reference value="Encounter/ID962"/>
    </encounter>
    
  </Observation>
  
  </resource>
  <transaction>
    <method value="PUT"/>
    <url value="Observation/ID962-bmi"/>
  </transaction>
</entry>
<entry>
  <resource>
    
    
  <Observation>
  <id value="ID963-height"/>
    <text>
      <status value="generated"/>
      <div xmlns="http://www.w3.org/1999/xhtml">2011-07-12: height = 178.0 cm</div>
    </text>
    <code>
      <coding>
        <system value="http://loinc.org"/>
        <code value="8302-2"/>
        <display value="height"/>
      </coding>
    </code>
    <valueQuantity>
      <value value="178.0"/>
      <units value="cm"/>
      <system value="http://unitsofmeasure.org" />
      <code value="cm"/>
    </valueQuantity>
    
    <appliesDateTime value="2011-07-12"/>
    <status value="final"/>
    <reliability value="ok"/>
    <subject>
      <reference value="Patient/ID8888804"/>
    </subject>
    <encounter>
      <reference value="Encounter/ID963"/>
    </encounter>
    
  </Observation>
  
  </resource>
  <transaction>
    <method value="PUT"/>
    <url value="Observation/ID963-height"/>
  </transaction>
</entry>
<entry>
  <resource>
    
    
  <Observation>
  <id value="ID963-weight"/>
    <text>
      <status value="generated"/>
      <div xmlns="http://www.w3.org/1999/xhtml">2011-07-12: weight = 93.9 kg</div>
    </text>
    <code>
      <coding>
        <system value="http://loinc.org"/>
        <code value="3141-9"/>
        <display value="weight"/>
      </coding>
    </code>
    <valueQuantity>
      <value value="93.9"/>
      <units value="kg"/>
      <system value="http://unitsofmeasure.org" />
      <code value="kg"/>
    </valueQuantity>
    
    <appliesDateTime value="2011-07-12"/>
    <status value="final"/>
    <reliability value="ok"/>
    <subject>
      <reference value="Patient/ID8888804"/>
    </subject>
    <encounter>
      <reference value="Encounter/ID963"/>
    </encounter>
    
  </Observation>
  
  </resource>
  <transaction>
    <method value="PUT"/>
    <url value="Observation/ID963-weight"/>
  </transaction>
</entry>
<entry>
  <resource>
    
    
  <Observation>
  <id value="ID963-bmi"/>
    <text>
      <status value="generated"/>
      <div xmlns="http://www.w3.org/1999/xhtml">2011-07-12: bmi = 29.7 kg/m2</div>
    </text>
    <code>
      <coding>
        <system value="http://loinc.org"/>
        <code value="39156-5"/>
        <display value="bmi"/>
      </coding>
    </code>
    <valueQuantity>
      <value value="29.7"/>
      <units value="kg/m2"/>
      <system value="http://unitsofmeasure.org" />
      <code value="kg/m2"/>
    </valueQuantity>
    
    <appliesDateTime value="2011-07-12"/>
    <status value="final"/>
    <reliability value="ok"/>
    <subject>
      <reference value="Patient/ID8888804"/>
    </subject>
    <encounter>
      <reference value="Encounter/ID963"/>
    </encounter>
    
  </Observation>
  
  </resource>
  <transaction>
    <method value="PUT"/>
    <url value="Observation/ID963-bmi"/>
  </transaction>
</entry>
<entry>
  <resource>
    
    
  <Observation>
  <id value="ID964-height"/>
    <text>
      <status value="generated"/>
      <div xmlns="http://www.w3.org/1999/xhtml">2012-01-17: height = 178.0 cm</div>
    </text>
    <code>
      <coding>
        <system value="http://loinc.org"/>
        <code value="8302-2"/>
        <display value="height"/>
      </coding>
    </code>
    <valueQuantity>
      <value value="178.0"/>
      <units value="cm"/>
      <system value="http://unitsofmeasure.org" />
      <code value="cm"/>
    </valueQuantity>
    
    <appliesDateTime value="2012-01-17"/>
    <status value="final"/>
    <reliability value="ok"/>
    <subject>
      <reference value="Patient/ID8888804"/>
    </subject>
    <encounter>
      <reference value="Encounter/ID964"/>
    </encounter>
    
  </Observation>
  
  </resource>
  <transaction>
    <method value="PUT"/>
    <url value="Observation/ID964-height"/>
  </transaction>
</entry>
<entry>
  <resource>
    
    
  <Observation>
  <id value="ID964-weight"/>
    <text>
      <status value="generated"/>
      <div xmlns="http://www.w3.org/1999/xhtml">2012-01-17: weight = 90.7 kg</div>
    </text>
    <code>
      <coding>
        <system value="http://loinc.org"/>
        <code value="3141-9"/>
        <display value="weight"/>
      </coding>
    </code>
    <valueQuantity>
      <value value="90.7"/>
      <units value="kg"/>
      <system value="http://unitsofmeasure.org" />
      <code value="kg"/>
    </valueQuantity>
    
    <appliesDateTime value="2012-01-17"/>
    <status value="final"/>
    <reliability value="ok"/>
    <subject>
      <reference value="Patient/ID8888804"/>
    </subject>
    <encounter>
      <reference value="Encounter/ID964"/>
    </encounter>
    
  </Observation>
  
  </resource>
  <transaction>
    <method value="PUT"/>
    <url value="Observation/ID964-weight"/>
  </transaction>
</entry>
<entry>
  <resource>
    
    
  <Observation>
  <id value="ID964-bmi"/>
    <text>
      <status value="generated"/>
      <div xmlns="http://www.w3.org/1999/xhtml">2012-01-17: bmi = 28.7 kg/m2</div>
    </text>
    <code>
      <coding>
        <system value="http://loinc.org"/>
        <code value="39156-5"/>
        <display value="bmi"/>
      </coding>
    </code>
    <valueQuantity>
      <value value="28.7"/>
      <units value="kg/m2"/>
      <system value="http://unitsofmeasure.org" />
      <code value="kg/m2"/>
    </valueQuantity>
    
    <appliesDateTime value="2012-01-17"/>
    <status value="final"/>
    <reliability value="ok"/>
    <subject>
      <reference value="Patient/ID8888804"/>
    </subject>
    <encounter>
      <reference value="Encounter/ID964"/>
    </encounter>
    
  </Observation>
  
  </resource>
  <transaction>
    <method value="PUT"/>
    <url value="Observation/ID964-bmi"/>
  </transaction>
</entry>
<entry>
  <resource>
    
    
  <Observation>
  <id value="ID965-height"/>
    <text>
      <status value="generated"/>
      <div xmlns="http://www.w3.org/1999/xhtml">2012-05-06: height = 178.0 cm</div>
    </text>
    <code>
      <coding>
        <system value="http://loinc.org"/>
        <code value="8302-2"/>
        <display value="height"/>
      </coding>
    </code>
    <valueQuantity>
      <value value="178.0"/>
      <units value="cm"/>
      <system value="http://unitsofmeasure.org" />
      <code value="cm"/>
    </valueQuantity>
    
    <appliesDateTime value="2012-05-06"/>
    <status value="final"/>
    <reliability value="ok"/>
    <subject>
      <reference value="Patient/ID8888804"/>
    </subject>
    <encounter>
      <reference value="Encounter/ID965"/>
    </encounter>
    
  </Observation>
  
  </resource>
  <transaction>
    <method value="PUT"/>
    <url value="Observation/ID965-height"/>
  </transaction>
</entry>
<entry>
  <resource>
    
    
  <Observation>
  <id value="ID965-weight"/>
    <text>
      <status value="generated"/>
      <div xmlns="http://www.w3.org/1999/xhtml">2012-05-06: weight = 88.5 kg</div>
    </text>
    <code>
      <coding>
        <system value="http://loinc.org"/>
        <code value="3141-9"/>
        <display value="weight"/>
      </coding>
    </code>
    <valueQuantity>
      <value value="88.5"/>
      <units value="kg"/>
      <system value="http://unitsofmeasure.org" />
      <code value="kg"/>
    </valueQuantity>
    
    <appliesDateTime value="2012-05-06"/>
    <status value="final"/>
    <reliability value="ok"/>
    <subject>
      <reference value="Patient/ID8888804"/>
    </subject>
    <encounter>
      <reference value="Encounter/ID965"/>
    </encounter>
    
  </Observation>
  
  </resource>
  <transaction>
    <method value="PUT"/>
    <url value="Observation/ID965-weight"/>
  </transaction>
</entry>
<entry>
  <resource>
    
    
  <Observation>
  <id value="ID965-bmi"/>
    <text>
      <status value="generated"/>
      <div xmlns="http://www.w3.org/1999/xhtml">2012-05-06: bmi = 28.0 kg/m2</div>
    </text>
    <code>
      <coding>
        <system value="http://loinc.org"/>
        <code value="39156-5"/>
        <display value="bmi"/>
      </coding>
    </code>
    <valueQuantity>
      <value value="28.0"/>
      <units value="kg/m2"/>
      <system value="http://unitsofmeasure.org" />
      <code value="kg/m2"/>
    </valueQuantity>
    
    <appliesDateTime value="2012-05-06"/>
    <status value="final"/>
    <reliability value="ok"/>
    <subject>
      <reference value="Patient/ID8888804"/>
    </subject>
    <encounter>
      <reference value="Encounter/ID965"/>
    </encounter>
    
  </Observation>
  
  </resource>
  <transaction>
    <method value="PUT"/>
    <url value="Observation/ID965-bmi"/>
  </transaction>
</entry>
<entry>
  <resource>
    
    
  <Observation>
  <id value="ID966-height"/>
    <text>
      <status value="generated"/>
      <div xmlns="http://www.w3.org/1999/xhtml">2012-11-09: height = 178.0 cm</div>
    </text>
    <code>
      <coding>
        <system value="http://loinc.org"/>
        <code value="8302-2"/>
        <display value="height"/>
      </coding>
    </code>
    <valueQuantity>
      <value value="178.0"/>
      <units value="cm"/>
      <system value="http://unitsofmeasure.org" />
      <code value="cm"/>
    </valueQuantity>
    
    <appliesDateTime value="2012-11-09"/>
    <status value="final"/>
    <reliability value="ok"/>
    <subject>
      <reference value="Patient/ID8888804"/>
    </subject>
    <encounter>
      <reference value="Encounter/ID966"/>
    </encounter>
    
  </Observation>
  
  </resource>
  <transaction>
    <method value="PUT"/>
    <url value="Observation/ID966-height"/>
  </transaction>
</entry>
<entry>
  <resource>
    
    
  <Observation>
  <id value="ID966-weight"/>
    <text>
      <status value="generated"/>
      <div xmlns="http://www.w3.org/1999/xhtml">2012-11-09: weight = 88.5 kg</div>
    </text>
    <code>
      <coding>
        <system value="http://loinc.org"/>
        <code value="3141-9"/>
        <display value="weight"/>
      </coding>
    </code>
    <valueQuantity>
      <value value="88.5"/>
      <units value="kg"/>
      <system value="http://unitsofmeasure.org" />
      <code value="kg"/>
    </valueQuantity>
    
    <appliesDateTime value="2012-11-09"/>
    <status value="final"/>
    <reliability value="ok"/>
    <subject>
      <reference value="Patient/ID8888804"/>
    </subject>
    <encounter>
      <reference value="Encounter/ID966"/>
    </encounter>
    
  </Observation>
  
  </resource>
  <transaction>
    <method value="PUT"/>
    <url value="Observation/ID966-weight"/>
  </transaction>
</entry>
<entry>
  <resource>
    
    
  <Observation>
  <id value="ID966-bmi"/>
    <text>
      <status value="generated"/>
      <div xmlns="http://www.w3.org/1999/xhtml">2012-11-09: bmi = 28.0 kg/m2</div>
    </text>
    <code>
      <coding>
        <system value="http://loinc.org"/>
        <code value="39156-5"/>
        <display value="bmi"/>
      </coding>
    </code>
    <valueQuantity>
      <value value="28.0"/>
      <units value="kg/m2"/>
      <system value="http://unitsofmeasure.org" />
      <code value="kg/m2"/>
    </valueQuantity>
    
    <appliesDateTime value="2012-11-09"/>
    <status value="final"/>
    <reliability value="ok"/>
    <subject>
      <reference value="Patient/ID8888804"/>
    </subject>
    <encounter>
      <reference value="Encounter/ID966"/>
    </encounter>
    
  </Observation>
  
  </resource>
  <transaction>
    <method value="PUT"/>
    <url value="Observation/ID966-bmi"/>
  </transaction>
</entry>
<entry>
  <resource>
    
    
  <Observation>
  <id value="ID3294-lab"/>
    <text>
      <status value="generated"/>
      <div xmlns="http://www.w3.org/1999/xhtml">2011-02-03: Hct VFr Bld Auto = 46.9 %</div>
    </text>
    <code>
      <coding>
        <system value="http://loinc.org"/>
        <code value="4544-3"/>
        <display value="Hct VFr Bld Auto"/>
      </coding>
    </code>
    <valueQuantity>
      <value value="46.9"/>
      <units value="%"/>
      <system value="http://unitsofmeasure.org" />
      <code value=""/>
    </valueQuantity>
    
    <appliesDateTime value="2011-02-03"/>
    <status value="final"/>
    <reliability value="ok"/>
    <subject>
      <reference value="Patient/ID8888804"/>
    </subject>
  </Observation>
  
  </resource>
  <transaction>
    <method value="PUT"/>
    <url value="Observation/ID3294-lab"/>
  </transaction>
</entry>
<entry>
  <resource>
    
    
  <Observation>
  <id value="ID3295-lab"/>
    <text>
      <status value="generated"/>
      <div xmlns="http://www.w3.org/1999/xhtml">2011-02-03: RBC # Bld Auto = 4.18 10*6/uL</div>
    </text>
    <code>
      <coding>
        <system value="http://loinc.org"/>
        <code value="789-8"/>
        <display value="RBC # Bld Auto"/>
      </coding>
    </code>
    <valueQuantity>
      <value value="4.18"/>
      <units value="10*6/uL"/>
      <system value="http://unitsofmeasure.org" />
      <code value=""/>
    </valueQuantity>
    
    <appliesDateTime value="2011-02-03"/>
    <status value="final"/>
    <reliability value="ok"/>
    <subject>
      <reference value="Patient/ID8888804"/>
    </subject>
  </Observation>
  
  </resource>
  <transaction>
    <method value="PUT"/>
    <url value="Observation/ID3295-lab"/>
  </transaction>
</entry>
<entry>
  <resource>
    
    
  <Observation>
  <id value="ID3296-lab"/>
    <text>
      <status value="generated"/>
      <div xmlns="http://www.w3.org/1999/xhtml">2011-02-03: MCV RBC = 88 fL</div>
    </text>
    <code>
      <coding>
        <system value="http://loinc.org"/>
        <code value="30428-7"/>
        <display value="MCV RBC"/>
      </coding>
    </code>
    <valueQuantity>
      <value value="88.0"/>
      <units value="fL"/>
      <system value="http://unitsofmeasure.org" />
      <code value=""/>
    </valueQuantity>
    
    <appliesDateTime value="2011-02-03"/>
    <status value="final"/>
    <reliability value="ok"/>
    <subject>
      <reference value="Patient/ID8888804"/>
    </subject>
  </Observation>
  
  </resource>
  <transaction>
    <method value="PUT"/>
    <url value="Observation/ID3296-lab"/>
  </transaction>
</entry>
<entry>
  <resource>
    
    
  <Observation>
  <id value="ID3297-lab"/>
    <text>
      <status value="generated"/>
      <div xmlns="http://www.w3.org/1999/xhtml">2011-02-03: MCH RBC Qn Auto = 28 pg</div>
    </text>
    <code>
      <coding>
        <system value="http://loinc.org"/>
        <code value="785-6"/>
        <display value="MCH RBC Qn Auto"/>
      </coding>
    </code>
    <valueQuantity>
      <value value="28.0"/>
      <units value="pg"/>
      <system value="http://unitsofmeasure.org" />
      <code value=""/>
    </valueQuantity>
    
    <appliesDateTime value="2011-02-03"/>
    <status value="final"/>
    <reliability value="ok"/>
    <subject>
      <reference value="Patient/ID8888804"/>
    </subject>
  </Observation>
  
  </resource>
  <transaction>
    <method value="PUT"/>
    <url value="Observation/ID3297-lab"/>
  </transaction>
</entry>
<entry>
  <resource>
    
    
  <Observation>
  <id value="ID3298-lab"/>
    <text>
      <status value="generated"/>
      <div xmlns="http://www.w3.org/1999/xhtml">2011-02-03: MCHC RBC Auto-mCnc = 30 g/dL</div>
    </text>
    <code>
      <coding>
        <system value="http://loinc.org"/>
        <code value="786-4"/>
        <display value="MCHC RBC Auto-mCnc"/>
      </coding>
    </code>
    <valueQuantity>
      <value value="30.0"/>
      <units value="g/dL"/>
      <system value="http://unitsofmeasure.org" />
      <code value=""/>
    </valueQuantity>
    
    <appliesDateTime value="2011-02-03"/>
    <status value="final"/>
    <reliability value="ok"/>
    <subject>
      <reference value="Patient/ID8888804"/>
    </subject>
  </Observation>
  
  </resource>
  <transaction>
    <method value="PUT"/>
    <url value="Observation/ID3298-lab"/>
  </transaction>
</entry>
<entry>
  <resource>
    
    
  <Observation>
  <id value="ID3299-lab"/>
    <text>
      <status value="generated"/>
      <div xmlns="http://www.w3.org/1999/xhtml">2011-02-03: RDW RBC-Rto = 14.6 %</div>
    </text>
    <code>
      <coding>
        <system value="http://loinc.org"/>
        <code value="30385-9"/>
        <display value="RDW RBC-Rto"/>
      </coding>
    </code>
    <valueQuantity>
      <value value="14.6"/>
      <units value="%"/>
      <system value="http://unitsofmeasure.org" />
      <code value=""/>
    </valueQuantity>
    
    <appliesDateTime value="2011-02-03"/>
    <status value="final"/>
    <reliability value="ok"/>
    <subject>
      <reference value="Patient/ID8888804"/>
    </subject>
  </Observation>
  
  </resource>
  <transaction>
    <method value="PUT"/>
    <url value="Observation/ID3299-lab"/>
  </transaction>
</entry>
<entry>
  <resource>
    
    
  <Observation>
  <id value="ID3300-lab"/>
    <text>
      <status value="generated"/>
      <div xmlns="http://www.w3.org/1999/xhtml">2011-02-03: WBC # Bld = 7.1 10*3/uL</div>
    </text>
    <code>
      <coding>
        <system value="http://loinc.org"/>
        <code value="26464-8"/>
        <display value="WBC # Bld"/>
      </coding>
    </code>
    <valueQuantity>
      <value value="7.1"/>
      <units value="10*3/uL"/>
      <system value="http://unitsofmeasure.org" />
      <code value=""/>
    </valueQuantity>
    
    <appliesDateTime value="2011-02-03"/>
    <status value="final"/>
    <reliability value="ok"/>
    <subject>
      <reference value="Patient/ID8888804"/>
    </subject>
  </Observation>
  
  </resource>
  <transaction>
    <method value="PUT"/>
    <url value="Observation/ID3300-lab"/>
  </transaction>
</entry>
<entry>
  <resource>
    
    
  <Observation>
  <id value="ID3301-lab"/>
    <text>
      <status value="generated"/>
      <div xmlns="http://www.w3.org/1999/xhtml">2011-02-03: Neutrophils NFr Bld Auto = 54 %</div>
    </text>
    <code>
      <coding>
        <system value="http://loinc.org"/>
        <code value="770-8"/>
        <display value="Neutrophils NFr Bld Auto"/>
      </coding>
    </code>
    <valueQuantity>
      <value value="54.0"/>
      <units value="%"/>
      <system value="http://unitsofmeasure.org" />
      <code value=""/>
    </valueQuantity>
    
    <appliesDateTime value="2011-02-03"/>
    <status value="final"/>
    <reliability value="ok"/>
    <subject>
      <reference value="Patient/ID8888804"/>
    </subject>
  </Observation>
  
  </resource>
  <transaction>
    <method value="PUT"/>
    <url value="Observation/ID3301-lab"/>
  </transaction>
</entry>
<entry>
  <resource>
    
    
  <Observation>
  <id value="ID3302-lab"/>
    <text>
      <status value="generated"/>
      <div xmlns="http://www.w3.org/1999/xhtml">2011-02-03: Lymphocytes NFr Bld = 36 %</div>
    </text>
    <code>
      <coding>
        <system value="http://loinc.org"/>
        <code value="26478-8"/>
        <display value="Lymphocytes NFr Bld"/>
      </coding>
    </code>
    <valueQuantity>
      <value value="36.0"/>
      <units value="%"/>
      <system value="http://unitsofmeasure.org" />
      <code value=""/>
    </valueQuantity>
    
    <appliesDateTime value="2011-02-03"/>
    <status value="final"/>
    <reliability value="ok"/>
    <subject>
      <reference value="Patient/ID8888804"/>
    </subject>
  </Observation>
  
  </resource>
  <transaction>
    <method value="PUT"/>
    <url value="Observation/ID3302-lab"/>
  </transaction>
</entry>
<entry>
  <resource>
    
    
  <Observation>
  <id value="ID3303-lab"/>
    <text>
      <status value="generated"/>
      <div xmlns="http://www.w3.org/1999/xhtml">2011-02-03: Basophils NFr Bld = 1 %</div>
    </text>
    <code>
      <coding>
        <system value="http://loinc.org"/>
        <code value="30180-4"/>
        <display value="Basophils NFr Bld"/>
      </coding>
    </code>
    <valueQuantity>
      <value value="1.0"/>
      <units value="%"/>
      <system value="http://unitsofmeasure.org" />
      <code value=""/>
    </valueQuantity>
    
    <appliesDateTime value="2011-02-03"/>
    <status value="final"/>
    <reliability value="ok"/>
    <subject>
      <reference value="Patient/ID8888804"/>
    </subject>
  </Observation>
  
  </resource>
  <transaction>
    <method value="PUT"/>
    <url value="Observation/ID3303-lab"/>
  </transaction>
</entry>
<entry>
  <resource>
    
    
  <Observation>
  <id value="ID3304-lab"/>
    <text>
      <status value="generated"/>
      <div xmlns="http://www.w3.org/1999/xhtml">2011-02-03: Eosinophil NFr Bld = 4 %</div>
    </text>
    <code>
      <coding>
        <system value="http://loinc.org"/>
        <code value="26450-7"/>
        <display value="Eosinophil NFr Bld"/>
      </coding>
    </code>
    <valueQuantity>
      <value value="4.0"/>
      <units value="%"/>
      <system value="http://unitsofmeasure.org" />
      <code value=""/>
    </valueQuantity>
    
    <appliesDateTime value="2011-02-03"/>
    <status value="final"/>
    <reliability value="ok"/>
    <subject>
      <reference value="Patient/ID8888804"/>
    </subject>
  </Observation>
  
  </resource>
  <transaction>
    <method value="PUT"/>
    <url value="Observation/ID3304-lab"/>
  </transaction>
</entry>
<entry>
  <resource>
    
    
  <Observation>
  <id value="ID3305-lab"/>
    <text>
      <status value="generated"/>
      <div xmlns="http://www.w3.org/1999/xhtml">2011-02-03: Monocytes NFr Bld = 6 %</div>
    </text>
    <code>
      <coding>
        <system value="http://loinc.org"/>
        <code value="26485-3"/>
        <display value="Monocytes NFr Bld"/>
      </coding>
    </code>
    <valueQuantity>
      <value value="6.0"/>
      <units value="%"/>
      <system value="http://unitsofmeasure.org" />
      <code value=""/>
    </valueQuantity>
    
    <appliesDateTime value="2011-02-03"/>
    <status value="final"/>
    <reliability value="ok"/>
    <subject>
      <reference value="Patient/ID8888804"/>
    </subject>
  </Observation>
  
  </resource>
  <transaction>
    <method value="PUT"/>
    <url value="Observation/ID3305-lab"/>
  </transaction>
</entry>
<entry>
  <resource>
    
    
  <Observation>
  <id value="ID3306-lab"/>
    <text>
      <status value="generated"/>
      <div xmlns="http://www.w3.org/1999/xhtml">2011-02-03: Platelet # Bld = 392 10*3/uL</div>
    </text>
    <code>
      <coding>
        <system value="http://loinc.org"/>
        <code value="26515-7"/>
        <display value="Platelet # Bld"/>
      </coding>
    </code>
    <valueQuantity>
      <value value="392.0"/>
      <units value="10*3/uL"/>
      <system value="http://unitsofmeasure.org" />
      <code value=""/>
    </valueQuantity>
    
    <appliesDateTime value="2011-02-03"/>
    <status value="final"/>
    <reliability value="ok"/>
    <subject>
      <reference value="Patient/ID8888804"/>
    </subject>
  </Observation>
  
  </resource>
  <transaction>
    <method value="PUT"/>
    <url value="Observation/ID3306-lab"/>
  </transaction>
</entry>
<entry>
  <resource>
    
    
  <Observation>
  <id value="ID3307-lab"/>
    <text>
      <status value="generated"/>
      <div xmlns="http://www.w3.org/1999/xhtml">2011-02-03: Glucose SerPl-mCnc = 91 mg/dL</div>
    </text>
    <code>
      <coding>
        <system value="http://loinc.org"/>
        <code value="2345-7"/>
        <display value="Glucose SerPl-mCnc"/>
      </coding>
    </code>
    <valueQuantity>
      <value value="91.0"/>
      <units value="mg/dL"/>
      <system value="http://unitsofmeasure.org" />
      <code value=""/>
    </valueQuantity>
    
    <appliesDateTime value="2011-02-03"/>
    <status value="final"/>
    <reliability value="ok"/>
    <subject>
      <reference value="Patient/ID8888804"/>
    </subject>
  </Observation>
  
  </resource>
  <transaction>
    <method value="PUT"/>
    <url value="Observation/ID3307-lab"/>
  </transaction>
</entry>
<entry>
  <resource>
    
    
  <Observation>
  <id value="ID3308-lab"/>
    <text>
      <status value="generated"/>
      <div xmlns="http://www.w3.org/1999/xhtml">2011-02-03: Calcium SerPl-mCnc = 9.2 mg/dL</div>
    </text>
    <code>
      <coding>
        <system value="http://loinc.org"/>
        <code value="17861-6"/>
        <display value="Calcium SerPl-mCnc"/>
      </coding>
    </code>
    <valueQuantity>
      <value value="9.2"/>
      <units value="mg/dL"/>
      <system value="http://unitsofmeasure.org" />
      <code value=""/>
    </valueQuantity>
    
    <appliesDateTime value="2011-02-03"/>
    <status value="final"/>
    <reliability value="ok"/>
    <subject>
      <reference value="Patient/ID8888804"/>
    </subject>
  </Observation>
  
  </resource>
  <transaction>
    <method value="PUT"/>
    <url value="Observation/ID3308-lab"/>
  </transaction>
</entry>
<entry>
  <resource>
    
    
  <Observation>
  <id value="ID3309-lab"/>
    <text>
      <status value="generated"/>
      <div xmlns="http://www.w3.org/1999/xhtml">2011-02-03: Prot SerPl-mCnc = 6.9 g/dL</div>
    </text>
    <code>
      <coding>
        <system value="http://loinc.org"/>
        <code value="2885-2"/>
        <display value="Prot SerPl-mCnc"/>
      </coding>
    </code>
    <valueQuantity>
      <value value="6.9"/>
      <units value="g/dL"/>
      <system value="http://unitsofmeasure.org" />
      <code value=""/>
    </valueQuantity>
    
    <appliesDateTime value="2011-02-03"/>
    <status value="final"/>
    <reliability value="ok"/>
    <subject>
      <reference value="Patient/ID8888804"/>
    </subject>
  </Observation>
  
  </resource>
  <transaction>
    <method value="PUT"/>
    <url value="Observation/ID3309-lab"/>
  </transaction>
</entry>
<entry>
  <resource>
    
    
  <Observation>
  <id value="ID3310-lab"/>
    <text>
      <status value="generated"/>
      <div xmlns="http://www.w3.org/1999/xhtml">2011-02-03: Albumin SerPl-mCnc = 4.1 g/dL</div>
    </text>
    <code>
      <coding>
        <system value="http://loinc.org"/>
        <code value="1751-7"/>
        <display value="Albumin SerPl-mCnc"/>
      </coding>
    </code>
    <valueQuantity>
      <value value="4.1"/>
      <units value="g/dL"/>
      <system value="http://unitsofmeasure.org" />
      <code value=""/>
    </valueQuantity>
    
    <appliesDateTime value="2011-02-03"/>
    <status value="final"/>
    <reliability value="ok"/>
    <subject>
      <reference value="Patient/ID8888804"/>
    </subject>
  </Observation>
  
  </resource>
  <transaction>
    <method value="PUT"/>
    <url value="Observation/ID3310-lab"/>
  </transaction>
</entry>
<entry>
  <resource>
    
    
  <Observation>
  <id value="ID3311-lab"/>
    <text>
      <status value="generated"/>
      <div xmlns="http://www.w3.org/1999/xhtml">2011-02-03: Sodium SerPl-sCnc = 142 mmol/L</div>
    </text>
    <code>
      <coding>
        <system value="http://loinc.org"/>
        <code value="2951-2"/>
        <display value="Sodium SerPl-sCnc"/>
      </coding>
    </code>
    <valueQuantity>
      <value value="142.0"/>
      <units value="mmol/L"/>
      <system value="http://unitsofmeasure.org" />
      <code value=""/>
    </valueQuantity>
    
    <appliesDateTime value="2011-02-03"/>
    <status value="final"/>
    <reliability value="ok"/>
    <subject>
      <reference value="Patient/ID8888804"/>
    </subject>
  </Observation>
  
  </resource>
  <transaction>
    <method value="PUT"/>
    <url value="Observation/ID3311-lab"/>
  </transaction>
</entry>
<entry>
  <resource>
    
    
  <Observation>
  <id value="ID3312-lab"/>
    <text>
      <status value="generated"/>
      <div xmlns="http://www.w3.org/1999/xhtml">2011-02-03: Potassium SerPl-sCnc = 4.4 mmol/L</div>
    </text>
    <code>
      <coding>
        <system value="http://loinc.org"/>
        <code value="2823-3"/>
        <display value="Potassium SerPl-sCnc"/>
      </coding>
    </code>
    <valueQuantity>
      <value value="4.4"/>
      <units value="mmol/L"/>
      <system value="http://unitsofmeasure.org" />
      <code value=""/>
    </valueQuantity>
    
    <appliesDateTime value="2011-02-03"/>
    <status value="final"/>
    <reliability value="ok"/>
    <subject>
      <reference value="Patient/ID8888804"/>
    </subject>
  </Observation>
  
  </resource>
  <transaction>
    <method value="PUT"/>
    <url value="Observation/ID3312-lab"/>
  </transaction>
</entry>
<entry>
  <resource>
    
    
  <Observation>
  <id value="ID3313-lab"/>
    <text>
      <status value="generated"/>
      <div xmlns="http://www.w3.org/1999/xhtml">2011-02-03: CO2 SerPl-sCnc = 24 mmol/L</div>
    </text>
    <code>
      <coding>
        <system value="http://loinc.org"/>
        <code value="2028-9"/>
        <display value="CO2 SerPl-sCnc"/>
      </coding>
    </code>
    <valueQuantity>
      <value value="24.0"/>
      <units value="mmol/L"/>
      <system value="http://unitsofmeasure.org" />
      <code value=""/>
    </valueQuantity>
    
    <appliesDateTime value="2011-02-03"/>
    <status value="final"/>
    <reliability value="ok"/>
    <subject>
      <reference value="Patient/ID8888804"/>
    </subject>
  </Observation>
  
  </resource>
  <transaction>
    <method value="PUT"/>
    <url value="Observation/ID3313-lab"/>
  </transaction>
</entry>
<entry>
  <resource>
    
    
  <Observation>
  <id value="ID3314-lab"/>
    <text>
      <status value="generated"/>
      <div xmlns="http://www.w3.org/1999/xhtml">2011-02-03: Chloride SerPl-sCnc = 105 mmol/L</div>
    </text>
    <code>
      <coding>
        <system value="http://loinc.org"/>
        <code value="2075-0"/>
        <display value="Chloride SerPl-sCnc"/>
      </coding>
    </code>
    <valueQuantity>
      <value value="105.0"/>
      <units value="mmol/L"/>
      <system value="http://unitsofmeasure.org" />
      <code value=""/>
    </valueQuantity>
    
    <appliesDateTime value="2011-02-03"/>
    <status value="final"/>
    <reliability value="ok"/>
    <subject>
      <reference value="Patient/ID8888804"/>
    </subject>
  </Observation>
  
  </resource>
  <transaction>
    <method value="PUT"/>
    <url value="Observation/ID3314-lab"/>
  </transaction>
</entry>
<entry>
  <resource>
    
    
  <Observation>
  <id value="ID3315-lab"/>
    <text>
      <status value="generated"/>
      <div xmlns="http://www.w3.org/1999/xhtml">2011-02-03: BUN SerPl-mCnc = 10 mg/dL</div>
    </text>
    <code>
      <coding>
        <system value="http://loinc.org"/>
        <code value="3094-0"/>
        <display value="BUN SerPl-mCnc"/>
      </coding>
    </code>
    <valueQuantity>
      <value value="10.0"/>
      <units value="mg/dL"/>
      <system value="http://unitsofmeasure.org" />
      <code value=""/>
    </valueQuantity>
    
    <appliesDateTime value="2011-02-03"/>
    <status value="final"/>
    <reliability value="ok"/>
    <subject>
      <reference value="Patient/ID8888804"/>
    </subject>
  </Observation>
  
  </resource>
  <transaction>
    <method value="PUT"/>
    <url value="Observation/ID3315-lab"/>
  </transaction>
</entry>
<entry>
  <resource>
    
    
  <Observation>
  <id value="ID3316-lab"/>
    <text>
      <status value="generated"/>
      <div xmlns="http://www.w3.org/1999/xhtml">2011-02-03: Creat SerPl-mCnc = 0.71 mg/dL</div>
    </text>
    <code>
      <coding>
        <system value="http://loinc.org"/>
        <code value="2160-0"/>
        <display value="Creat SerPl-mCnc"/>
      </coding>
    </code>
    <valueQuantity>
      <value value="0.71"/>
      <units value="mg/dL"/>
      <system value="http://unitsofmeasure.org" />
      <code value=""/>
    </valueQuantity>
    
    <appliesDateTime value="2011-02-03"/>
    <status value="final"/>
    <reliability value="ok"/>
    <subject>
      <reference value="Patient/ID8888804"/>
    </subject>
  </Observation>
  
  </resource>
  <transaction>
    <method value="PUT"/>
    <url value="Observation/ID3316-lab"/>
  </transaction>
</entry>
<entry>
  <resource>
    
    
  <Observation>
  <id value="ID3317-lab"/>
    <text>
      <status value="generated"/>
      <div xmlns="http://www.w3.org/1999/xhtml">2011-02-03: ALP SerPl-cCnc = 62 U/L</div>
    </text>
    <code>
      <coding>
        <system value="http://loinc.org"/>
        <code value="6768-6"/>
        <display value="ALP SerPl-cCnc"/>
      </coding>
    </code>
    <valueQuantity>
      <value value="62.0"/>
      <units value="U/L"/>
      <system value="http://unitsofmeasure.org" />
      <code value=""/>
    </valueQuantity>
    
    <appliesDateTime value="2011-02-03"/>
    <status value="final"/>
    <reliability value="ok"/>
    <subject>
      <reference value="Patient/ID8888804"/>
    </subject>
  </Observation>
  
  </resource>
  <transaction>
    <method value="PUT"/>
    <url value="Observation/ID3317-lab"/>
  </transaction>
</entry>
<entry>
  <resource>
    
    
  <Observation>
  <id value="ID3318-lab"/>
    <text>
      <status value="generated"/>
      <div xmlns="http://www.w3.org/1999/xhtml">2011-02-03: ALT SerPl-cCnc = 22 U/L</div>
    </text>
    <code>
      <coding>
        <system value="http://loinc.org"/>
        <code value="1742-6"/>
        <display value="ALT SerPl-cCnc"/>
      </coding>
    </code>
    <valueQuantity>
      <value value="22.0"/>
      <units value="U/L"/>
      <system value="http://unitsofmeasure.org" />
      <code value=""/>
    </valueQuantity>
    
    <appliesDateTime value="2011-02-03"/>
    <status value="final"/>
    <reliability value="ok"/>
    <subject>
      <reference value="Patient/ID8888804"/>
    </subject>
  </Observation>
  
  </resource>
  <transaction>
    <method value="PUT"/>
    <url value="Observation/ID3318-lab"/>
  </transaction>
</entry>
<entry>
  <resource>
    
    
  <Observation>
  <id value="ID3319-lab"/>
    <text>
      <status value="generated"/>
      <div xmlns="http://www.w3.org/1999/xhtml">2011-02-03: AST SerPl-cCnc = 18 U/L</div>
    </text>
    <code>
      <coding>
        <system value="http://loinc.org"/>
        <code value="1920-8"/>
        <display value="AST SerPl-cCnc"/>
      </coding>
    </code>
    <valueQuantity>
      <value value="18.0"/>
      <units value="U/L"/>
      <system value="http://unitsofmeasure.org" />
      <code value=""/>
    </valueQuantity>
    
    <appliesDateTime value="2011-02-03"/>
    <status value="final"/>
    <reliability value="ok"/>
    <subject>
      <reference value="Patient/ID8888804"/>
    </subject>
  </Observation>
  
  </resource>
  <transaction>
    <method value="PUT"/>
    <url value="Observation/ID3319-lab"/>
  </transaction>
</entry>
<entry>
  <resource>
    
    
  <Observation>
  <id value="ID3320-lab"/>
    <text>
      <status value="generated"/>
      <div xmlns="http://www.w3.org/1999/xhtml">2011-02-03: Bilirub SerPl-mCnc = 0.4 mg/dL</div>
    </text>
    <code>
      <coding>
        <system value="http://loinc.org"/>
        <code value="1975-2"/>
        <display value="Bilirub SerPl-mCnc"/>
      </coding>
    </code>
    <valueQuantity>
      <value value="0.4"/>
      <units value="mg/dL"/>
      <system value="http://unitsofmeasure.org" />
      <code value=""/>
    </valueQuantity>
    
    <appliesDateTime value="2011-02-03"/>
    <status value="final"/>
    <reliability value="ok"/>
    <subject>
      <reference value="Patient/ID8888804"/>
    </subject>
  </Observation>
  
  </resource>
  <transaction>
    <method value="PUT"/>
    <url value="Observation/ID3320-lab"/>
  </transaction>
</entry>
<entry>
  <resource>
    
    
  <Observation>
  <id value="ID3321-lab"/>
    <text>
      <status value="generated"/>
      <div xmlns="http://www.w3.org/1999/xhtml">2011-02-03: 25(OH)D3 SerPl-mCnc = 40 ng/mL</div>
    </text>
    <code>
      <coding>
        <system value="http://loinc.org"/>
        <code value="1989-3"/>
        <display value="25(OH)D3 SerPl-mCnc"/>
      </coding>
    </code>
    <valueQuantity>
      <value value="40.0"/>
      <units value="ng/mL"/>
      <system value="http://unitsofmeasure.org" />
      <code value=""/>
    </valueQuantity>
    
    <appliesDateTime value="2011-02-03"/>
    <status value="final"/>
    <reliability value="ok"/>
    <subject>
      <reference value="Patient/ID8888804"/>
    </subject>
  </Observation>
  
  </resource>
  <transaction>
    <method value="PUT"/>
    <url value="Observation/ID3321-lab"/>
  </transaction>
</entry>
<entry>
  <resource>
    
    
  <Observation>
  <id value="ID3322-lab"/>
    <text>
      <status value="generated"/>
      <div xmlns="http://www.w3.org/1999/xhtml">2011-02-03: Urate SerPl-mCnc = 7.2 mg/dL</div>
    </text>
    <code>
      <coding>
        <system value="http://loinc.org"/>
        <code value="3084-1"/>
        <display value="Urate SerPl-mCnc"/>
      </coding>
    </code>
    <valueQuantity>
      <value value="7.2"/>
      <units value="mg/dL"/>
      <system value="http://unitsofmeasure.org" />
      <code value=""/>
    </valueQuantity>
    
    <appliesDateTime value="2011-02-03"/>
    <status value="final"/>
    <reliability value="ok"/>
    <subject>
      <reference value="Patient/ID8888804"/>
    </subject>
  </Observation>
  
  </resource>
  <transaction>
    <method value="PUT"/>
    <url value="Observation/ID3322-lab"/>
  </transaction>
</entry>
<entry>
  <resource>
    
    
  <Observation>
  <id value="ID3323-lab"/>
    <text>
      <status value="generated"/>
      <div xmlns="http://www.w3.org/1999/xhtml">2011-02-03: ESR Bld Qn = 4 mm/h</div>
    </text>
    <code>
      <coding>
        <system value="http://loinc.org"/>
        <code value="30341-2"/>
        <display value="ESR Bld Qn"/>
      </coding>
    </code>
    <valueQuantity>
      <value value="4.0"/>
      <units value="mm/h"/>
      <system value="http://unitsofmeasure.org" />
      <code value=""/>
    </valueQuantity>
    
    <appliesDateTime value="2011-02-03"/>
    <status value="final"/>
    <reliability value="ok"/>
    <subject>
      <reference value="Patient/ID8888804"/>
    </subject>
  </Observation>
  
  </resource>
  <transaction>
    <method value="PUT"/>
    <url value="Observation/ID3323-lab"/>
  </transaction>
</entry>
<entry>
  <resource>
    
    
  <Observation>
  <id value="ID3324-lab"/>
    <text>
      <status value="generated"/>
      <div xmlns="http://www.w3.org/1999/xhtml">2011-02-03: ANA Ser EIA-aCnc = 0 [IU]/mL</div>
    </text>
    <code>
      <coding>
        <system value="http://loinc.org"/>
        <code value="5047-6"/>
        <display value="ANA Ser EIA-aCnc"/>
      </coding>
    </code>
    <valueQuantity>
      <value value="0.0"/>
      <units value="[IU]/mL"/>
      <system value="http://unitsofmeasure.org" />
      <code value=""/>
    </valueQuantity>
    
    <appliesDateTime value="2011-02-03"/>
    <status value="final"/>
    <reliability value="ok"/>
    <subject>
      <reference value="Patient/ID8888804"/>
    </subject>
  </Observation>
  
  </resource>
  <transaction>
    <method value="PUT"/>
    <url value="Observation/ID3324-lab"/>
  </transaction>
</entry>
<entry>
  <resource>
    
    
  <Observation>
  <id value="ID3325-lab"/>
    <text>
      <status value="generated"/>
      <div xmlns="http://www.w3.org/1999/xhtml">2011-02-03: Rheumatoid fact Ser-aCnc = 0 [IU]/mL</div>
    </text>
    <code>
      <coding>
        <system value="http://loinc.org"/>
        <code value="11572-5"/>
        <display value="Rheumatoid fact Ser-aCnc"/>
      </coding>
    </code>
    <valueQuantity>
      <value value="0.0"/>
      <units value="[IU]/mL"/>
      <system value="http://unitsofmeasure.org" />
      <code value=""/>
    </valueQuantity>
    
    <appliesDateTime value="2011-02-03"/>
    <status value="final"/>
    <reliability value="ok"/>
    <subject>
      <reference value="Patient/ID8888804"/>
    </subject>
  </Observation>
  
  </resource>
  <transaction>
    <method value="PUT"/>
    <url value="Observation/ID3325-lab"/>
  </transaction>
</entry>
<entry>
  <resource>
    
    
  <Observation>
  <id value="ID3326-lab"/>
    <text>
      <status value="generated"/>
      <div xmlns="http://www.w3.org/1999/xhtml">2011-02-03: Testost SerPl-mCnc = 598 ng/dL</div>
    </text>
    <code>
      <coding>
        <system value="http://loinc.org"/>
        <code value="2986-8"/>
        <display value="Testost SerPl-mCnc"/>
      </coding>
    </code>
    <valueQuantity>
      <value value="598.0"/>
      <units value="ng/dL"/>
      <system value="http://unitsofmeasure.org" />
      <code value=""/>
    </valueQuantity>
    
    <appliesDateTime value="2011-02-03"/>
    <status value="final"/>
    <reliability value="ok"/>
    <subject>
      <reference value="Patient/ID8888804"/>
    </subject>
  </Observation>
  
  </resource>
  <transaction>
    <method value="PUT"/>
    <url value="Observation/ID3326-lab"/>
  </transaction>
</entry>
<entry>
  <resource>
    
    
  <Observation>
  <id value="ID3327-lab"/>
    <text>
      <status value="generated"/>
      <div xmlns="http://www.w3.org/1999/xhtml">2011-02-03: Testost Free SerPl-sCnc = 139 pmol/L</div>
    </text>
    <code>
      <coding>
        <system value="http://loinc.org"/>
        <code value="14914-6"/>
        <display value="Testost Free SerPl-sCnc"/>
      </coding>
    </code>
    <valueQuantity>
      <value value="139.0"/>
      <units value="pmol/L"/>
      <system value="http://unitsofmeasure.org" />
      <code value=""/>
    </valueQuantity>
    
    <appliesDateTime value="2011-02-03"/>
    <status value="final"/>
    <reliability value="ok"/>
    <subject>
      <reference value="Patient/ID8888804"/>
    </subject>
  </Observation>
  
  </resource>
  <transaction>
    <method value="PUT"/>
    <url value="Observation/ID3327-lab"/>
  </transaction>
</entry>
<entry>
  <resource>
    
    
  <Observation>
  <id value="ID3328-lab"/>
    <text>
      <status value="generated"/>
      <div xmlns="http://www.w3.org/1999/xhtml">2011-02-03: Cholest SerPl-mCnc = 165 mg/dL</div>
    </text>
    <code>
      <coding>
        <system value="http://loinc.org"/>
        <code value="2093-3"/>
        <display value="Cholest SerPl-mCnc"/>
      </coding>
    </code>
    <valueQuantity>
      <value value="165.0"/>
      <units value="mg/dL"/>
      <system value="http://unitsofmeasure.org" />
      <code value=""/>
    </valueQuantity>
    
    <appliesDateTime value="2011-02-03"/>
    <status value="final"/>
    <reliability value="ok"/>
    <subject>
      <reference value="Patient/ID8888804"/>
    </subject>
  </Observation>
  
  </resource>
  <transaction>
    <method value="PUT"/>
    <url value="Observation/ID3328-lab"/>
  </transaction>
</entry>
<entry>
  <resource>
    
    
  <Observation>
  <id value="ID3329-lab"/>
    <text>
      <status value="generated"/>
      <div xmlns="http://www.w3.org/1999/xhtml">2011-02-03: HDLc SerPl-mCnc = 44 mg/dL</div>
    </text>
    <code>
      <coding>
        <system value="http://loinc.org"/>
        <code value="2085-9"/>
        <display value="HDLc SerPl-mCnc"/>
      </coding>
    </code>
    <valueQuantity>
      <value value="44.0"/>
      <units value="mg/dL"/>
      <system value="http://unitsofmeasure.org" />
      <code value=""/>
    </valueQuantity>
    
    <appliesDateTime value="2011-02-03"/>
    <status value="final"/>
    <reliability value="ok"/>
    <subject>
      <reference value="Patient/ID8888804"/>
    </subject>
  </Observation>
  
  </resource>
  <transaction>
    <method value="PUT"/>
    <url value="Observation/ID3329-lab"/>
  </transaction>
</entry>
<entry>
  <resource>
    
    
  <Observation>
  <id value="ID3330-lab"/>
    <text>
      <status value="generated"/>
      <div xmlns="http://www.w3.org/1999/xhtml">2011-02-03: LDLc SerPl Direct Assay-mCnc = 88 mg/dL</div>
    </text>
    <code>
      <coding>
        <system value="http://loinc.org"/>
        <code value="18262-6"/>
        <display value="LDLc SerPl Direct Assay-mCnc"/>
      </coding>
    </code>
    <valueQuantity>
      <value value="88.0"/>
      <units value="mg/dL"/>
      <system value="http://unitsofmeasure.org" />
      <code value=""/>
    </valueQuantity>
    
    <appliesDateTime value="2011-02-03"/>
    <status value="final"/>
    <reliability value="ok"/>
    <subject>
      <reference value="Patient/ID8888804"/>
    </subject>
  </Observation>
  
  </resource>
  <transaction>
    <method value="PUT"/>
    <url value="Observation/ID3330-lab"/>
  </transaction>
</entry>
<entry>
  <resource>
    
    
  <Observation>
  <id value="ID3331-lab"/>
    <text>
      <status value="generated"/>
      <div xmlns="http://www.w3.org/1999/xhtml">2011-02-03: Trigl SerPl-mCnc = 72 mg/dL</div>
    </text>
    <code>
      <coding>
        <system value="http://loinc.org"/>
        <code value="2571-8"/>
        <display value="Trigl SerPl-mCnc"/>
      </coding>
    </code>
    <valueQuantity>
      <value value="72.0"/>
      <units value="mg/dL"/>
      <system value="http://unitsofmeasure.org" />
      <code value=""/>
    </valueQuantity>
    
    <appliesDateTime value="2011-02-03"/>
    <status value="final"/>
    <reliability value="ok"/>
    <subject>
      <reference value="Patient/ID8888804"/>
    </subject>
  </Observation>
  
  </resource>
  <transaction>
    <method value="PUT"/>
    <url value="Observation/ID3331-lab"/>
  </transaction>
</entry>
<entry>
  <resource>
    
    
  <Observation>
  <id value="ID3332-lab"/>
    <text>
      <status value="generated"/>
      <div xmlns="http://www.w3.org/1999/xhtml">2011-02-03: TSH SerPl DL&lt;=0.005 mU/L-aCnc = 1.32 m[IU]/L</div>
    </text>
    <code>
      <coding>
        <system value="http://loinc.org"/>
        <code value="11580-8"/>
        <display value="TSH SerPl DL&lt;=0.005 mU/L-aCnc"/>
      </coding>
    </code>
    <valueQuantity>
      <value value="1.32"/>
      <units value="m[IU]/L"/>
      <system value="http://unitsofmeasure.org" />
      <code value=""/>
    </valueQuantity>
    
    <appliesDateTime value="2011-02-03"/>
    <status value="final"/>
    <reliability value="ok"/>
    <subject>
      <reference value="Patient/ID8888804"/>
    </subject>
  </Observation>
  
  </resource>
  <transaction>
    <method value="PUT"/>
    <url value="Observation/ID3332-lab"/>
  </transaction>
</entry>
<entry>
  <resource>
    
    
  <Observation>
  <id value="ID3333-lab"/>
    <text>
      <status value="generated"/>
      <div xmlns="http://www.w3.org/1999/xhtml">2011-02-03: Appearance Ur = clear, yellow </div>
    </text>
    <code>
      <coding>
        <system value="http://loinc.org"/>
        <code value="5767-9"/>
        <display value="Appearance Ur"/>
      </coding>
    </code>
    <valueString value="clear, yellow"/>
    
    <appliesDateTime value="2011-02-03"/>
    <status value="final"/>
    <reliability value="ok"/>
    <subject>
      <reference value="Patient/ID8888804"/>
    </subject>
  </Observation>
  
  </resource>
  <transaction>
    <method value="PUT"/>
    <url value="Observation/ID3333-lab"/>
  </transaction>
</entry>
<entry>
  <resource>
    
    
  <Observation>
  <id value="ID3334-lab"/>
    <extension url="http://fhir-registry.smarthealthit.org/StructureDefinition/labs#value-range" >
        <valueString value='[&#39;Negative&#39;, &#39;Positive&#39;]'/>
    </extension>
    
    <text>
      <status value="generated"/>
      <div xmlns="http://www.w3.org/1999/xhtml">2011-02-03: Bilirub Ur Ql Strip = Negative </div>
    </text>
    <code>
      <coding>
        <system value="http://loinc.org"/>
        <code value="5770-3"/>
        <display value="Bilirub Ur Ql Strip"/>
      </coding>
    </code>
    <valueString value="Negative"/>
    
    <appliesDateTime value="2011-02-03"/>
    <status value="final"/>
    <reliability value="ok"/>
    <subject>
      <reference value="Patient/ID8888804"/>
    </subject>
  </Observation>
  
  </resource>
  <transaction>
    <method value="PUT"/>
    <url value="Observation/ID3334-lab"/>
  </transaction>
</entry>
<entry>
  <resource>
    
    
  <Observation>
  <id value="ID3335-lab"/>
    <text>
      <status value="generated"/>
      <div xmlns="http://www.w3.org/1999/xhtml">2011-02-03: Glucose Ur Strip-mCnc = 0 mg/dL</div>
    </text>
    <code>
      <coding>
        <system value="http://loinc.org"/>
        <code value="5792-7"/>
        <display value="Glucose Ur Strip-mCnc"/>
      </coding>
    </code>
    <valueQuantity>
      <value value="0.0"/>
      <units value="mg/dL"/>
      <system value="http://unitsofmeasure.org" />
      <code value=""/>
    </valueQuantity>
    
    <appliesDateTime value="2011-02-03"/>
    <status value="final"/>
    <reliability value="ok"/>
    <subject>
      <reference value="Patient/ID8888804"/>
    </subject>
  </Observation>
  
  </resource>
  <transaction>
    <method value="PUT"/>
    <url value="Observation/ID3335-lab"/>
  </transaction>
</entry>
<entry>
  <resource>
    
    
  <Observation>
  <id value="ID3336-lab"/>
    <extension url="http://fhir-registry.smarthealthit.org/StructureDefinition/labs#value-range" >
        <valueString value='[&#39;Negative&#39;, &#39;Positive&#39;]'/>
    </extension>
    
    <text>
      <status value="generated"/>
      <div xmlns="http://www.w3.org/1999/xhtml">2011-02-03: Ketones Ur Ql = Negative </div>
    </text>
    <code>
      <coding>
        <system value="http://loinc.org"/>
        <code value="33903-6"/>
        <display value="Ketones Ur Ql"/>
      </coding>
    </code>
    <valueString value="Negative"/>
    
    <appliesDateTime value="2011-02-03"/>
    <status value="final"/>
    <reliability value="ok"/>
    <subject>
      <reference value="Patient/ID8888804"/>
    </subject>
  </Observation>
  
  </resource>
  <transaction>
    <method value="PUT"/>
    <url value="Observation/ID3336-lab"/>
  </transaction>
</entry>
<entry>
  <resource>
    
    
  <Observation>
  <id value="ID3337-lab"/>
    <extension url="http://fhir-registry.smarthealthit.org/StructureDefinition/labs#value-range" >
        <valueString value='[&#39;Negative&#39;, &#39;Positive&#39;]'/>
    </extension>
    
    <text>
      <status value="generated"/>
      <div xmlns="http://www.w3.org/1999/xhtml">2011-02-03: Leukocyte esterase Ur Ql Strip = Negative </div>
    </text>
    <code>
      <coding>
        <system value="http://loinc.org"/>
        <code value="5799-2"/>
        <display value="Leukocyte esterase Ur Ql Strip"/>
      </coding>
    </code>
    <valueString value="Negative"/>
    
    <appliesDateTime value="2011-02-03"/>
    <status value="final"/>
    <reliability value="ok"/>
    <subject>
      <reference value="Patient/ID8888804"/>
    </subject>
  </Observation>
  
  </resource>
  <transaction>
    <method value="PUT"/>
    <url value="Observation/ID3337-lab"/>
  </transaction>
</entry>
<entry>
  <resource>
    
    
  <Observation>
  <id value="ID3338-lab"/>
    <extension url="http://fhir-registry.smarthealthit.org/StructureDefinition/labs#value-range" >
        <valueString value='[&#39;Negative&#39;, &#39;Positive&#39;]'/>
    </extension>
    
    <text>
      <status value="generated"/>
      <div xmlns="http://www.w3.org/1999/xhtml">2011-02-03: Nitrite Ur Ql Strip = Negative </div>
    </text>
    <code>
      <coding>
        <system value="http://loinc.org"/>
        <code value="5802-4"/>
        <display value="Nitrite Ur Ql Strip"/>
      </coding>
    </code>
    <valueString value="Negative"/>
    
    <appliesDateTime value="2011-02-03"/>
    <status value="final"/>
    <reliability value="ok"/>
    <subject>
      <reference value="Patient/ID8888804"/>
    </subject>
  </Observation>
  
  </resource>
  <transaction>
    <method value="PUT"/>
    <url value="Observation/ID3338-lab"/>
  </transaction>
</entry>
<entry>
  <resource>
    
    
  <Observation>
  <id value="ID3339-lab"/>
    <extension url="http://fhir-registry.smarthealthit.org/StructureDefinition/labs#value-range" >
        <valueString value='[&#39;Negative&#39;, &#39;Positive&#39;]'/>
    </extension>
    
    <text>
      <status value="generated"/>
      <div xmlns="http://www.w3.org/1999/xhtml">2011-02-03: Hgb Ur Ql Strip = Negative </div>
    </text>
    <code>
      <coding>
        <system value="http://loinc.org"/>
        <code value="5794-3"/>
        <display value="Hgb Ur Ql Strip"/>
      </coding>
    </code>
    <valueString value="Negative"/>
    
    <appliesDateTime value="2011-02-03"/>
    <status value="final"/>
    <reliability value="ok"/>
    <subject>
      <reference value="Patient/ID8888804"/>
    </subject>
  </Observation>
  
  </resource>
  <transaction>
    <method value="PUT"/>
    <url value="Observation/ID3339-lab"/>
  </transaction>
</entry>
<entry>
  <resource>
    
    
  <Observation>
  <id value="ID3340-lab"/>
    <text>
      <status value="generated"/>
      <div xmlns="http://www.w3.org/1999/xhtml">2011-02-03: pH Ur Strip = 5 [pH]</div>
    </text>
    <code>
      <coding>
        <system value="http://loinc.org"/>
        <code value="5803-2"/>
        <display value="pH Ur Strip"/>
      </coding>
    </code>
    <valueQuantity>
      <value value="5.0"/>
      <units value="[pH]"/>
      <system value="http://unitsofmeasure.org" />
      <code value=""/>
    </valueQuantity>
    
    <appliesDateTime value="2011-02-03"/>
    <status value="final"/>
    <reliability value="ok"/>
    <subject>
      <reference value="Patient/ID8888804"/>
    </subject>
  </Observation>
  
  </resource>
  <transaction>
    <method value="PUT"/>
    <url value="Observation/ID3340-lab"/>
  </transaction>
</entry>
<entry>
  <resource>
    
    
  <Observation>
  <id value="ID3341-lab"/>
    <text>
      <status value="generated"/>
      <div xmlns="http://www.w3.org/1999/xhtml">2011-02-03: Prot Ur Strip-mCnc = 0 mg/dL</div>
    </text>
    <code>
      <coding>
        <system value="http://loinc.org"/>
        <code value="5804-0"/>
        <display value="Prot Ur Strip-mCnc"/>
      </coding>
    </code>
    <valueQuantity>
      <value value="0.0"/>
      <units value="mg/dL"/>
      <system value="http://unitsofmeasure.org" />
      <code value=""/>
    </valueQuantity>
    
    <appliesDateTime value="2011-02-03"/>
    <status value="final"/>
    <reliability value="ok"/>
    <subject>
      <reference value="Patient/ID8888804"/>
    </subject>
  </Observation>
  
  </resource>
  <transaction>
    <method value="PUT"/>
    <url value="Observation/ID3341-lab"/>
  </transaction>
</entry>
<entry>
  <resource>
    
    
  <Observation>
  <id value="ID3342-lab"/>
    <text>
      <status value="generated"/>
      <div xmlns="http://www.w3.org/1999/xhtml">2011-02-03: Sp Gr Ur Strip = 1.01 </div>
    </text>
    <code>
      <coding>
        <system value="http://loinc.org"/>
        <code value="5811-5"/>
        <display value="Sp Gr Ur Strip"/>
      </coding>
    </code>
    <valueQuantity>
      <value value="1.01"/>
      <units value=""/>
      <system value="http://unitsofmeasure.org" />
      <code value=""/>
    </valueQuantity>
    
    <appliesDateTime value="2011-02-03"/>
    <status value="final"/>
    <reliability value="ok"/>
    <subject>
      <reference value="Patient/ID8888804"/>
    </subject>
  </Observation>
  
  </resource>
  <transaction>
    <method value="PUT"/>
    <url value="Observation/ID3342-lab"/>
  </transaction>
</entry>
<entry>
  <resource>
    
    
  <Observation>
  <id value="ID3343-lab"/>
    <text>
      <status value="generated"/>
      <div xmlns="http://www.w3.org/1999/xhtml">2012-01-17: Hct VFr Bld Auto = 48.2 %</div>
    </text>
    <code>
      <coding>
        <system value="http://loinc.org"/>
        <code value="4544-3"/>
        <display value="Hct VFr Bld Auto"/>
      </coding>
    </code>
    <valueQuantity>
      <value value="48.2"/>
      <units value="%"/>
      <system value="http://unitsofmeasure.org" />
      <code value=""/>
    </valueQuantity>
    
    <appliesDateTime value="2012-01-17"/>
    <status value="final"/>
    <reliability value="ok"/>
    <subject>
      <reference value="Patient/ID8888804"/>
    </subject>
  </Observation>
  
  </resource>
  <transaction>
    <method value="PUT"/>
    <url value="Observation/ID3343-lab"/>
  </transaction>
</entry>
<entry>
  <resource>
    
    
  <Observation>
  <id value="ID3344-lab"/>
    <text>
      <status value="generated"/>
      <div xmlns="http://www.w3.org/1999/xhtml">2012-01-17: RBC # Bld Auto = 4.21 10*6/uL</div>
    </text>
    <code>
      <coding>
        <system value="http://loinc.org"/>
        <code value="789-8"/>
        <display value="RBC # Bld Auto"/>
      </coding>
    </code>
    <valueQuantity>
      <value value="4.21"/>
      <units value="10*6/uL"/>
      <system value="http://unitsofmeasure.org" />
      <code value=""/>
    </valueQuantity>
    
    <appliesDateTime value="2012-01-17"/>
    <status value="final"/>
    <reliability value="ok"/>
    <subject>
      <reference value="Patient/ID8888804"/>
    </subject>
  </Observation>
  
  </resource>
  <transaction>
    <method value="PUT"/>
    <url value="Observation/ID3344-lab"/>
  </transaction>
</entry>
<entry>
  <resource>
    
    
  <Observation>
  <id value="ID3345-lab"/>
    <text>
      <status value="generated"/>
      <div xmlns="http://www.w3.org/1999/xhtml">2012-01-17: MCV RBC = 89 fL</div>
    </text>
    <code>
      <coding>
        <system value="http://loinc.org"/>
        <code value="30428-7"/>
        <display value="MCV RBC"/>
      </coding>
    </code>
    <valueQuantity>
      <value value="89.0"/>
      <units value="fL"/>
      <system value="http://unitsofmeasure.org" />
      <code value=""/>
    </valueQuantity>
    
    <appliesDateTime value="2012-01-17"/>
    <status value="final"/>
    <reliability value="ok"/>
    <subject>
      <reference value="Patient/ID8888804"/>
    </subject>
  </Observation>
  
  </resource>
  <transaction>
    <method value="PUT"/>
    <url value="Observation/ID3345-lab"/>
  </transaction>
</entry>
<entry>
  <resource>
    
    
  <Observation>
  <id value="ID3346-lab"/>
    <text>
      <status value="generated"/>
      <div xmlns="http://www.w3.org/1999/xhtml">2012-01-17: MCH RBC Qn Auto = 29 pg</div>
    </text>
    <code>
      <coding>
        <system value="http://loinc.org"/>
        <code value="785-6"/>
        <display value="MCH RBC Qn Auto"/>
      </coding>
    </code>
    <valueQuantity>
      <value value="29.0"/>
      <units value="pg"/>
      <system value="http://unitsofmeasure.org" />
      <code value=""/>
    </valueQuantity>
    
    <appliesDateTime value="2012-01-17"/>
    <status value="final"/>
    <reliability value="ok"/>
    <subject>
      <reference value="Patient/ID8888804"/>
    </subject>
  </Observation>
  
  </resource>
  <transaction>
    <method value="PUT"/>
    <url value="Observation/ID3346-lab"/>
  </transaction>
</entry>
<entry>
  <resource>
    
    
  <Observation>
  <id value="ID3347-lab"/>
    <text>
      <status value="generated"/>
      <div xmlns="http://www.w3.org/1999/xhtml">2012-01-17: MCHC RBC Auto-mCnc = 31 g/dL</div>
    </text>
    <code>
      <coding>
        <system value="http://loinc.org"/>
        <code value="786-4"/>
        <display value="MCHC RBC Auto-mCnc"/>
      </coding>
    </code>
    <valueQuantity>
      <value value="31.0"/>
      <units value="g/dL"/>
      <system value="http://unitsofmeasure.org" />
      <code value=""/>
    </valueQuantity>
    
    <appliesDateTime value="2012-01-17"/>
    <status value="final"/>
    <reliability value="ok"/>
    <subject>
      <reference value="Patient/ID8888804"/>
    </subject>
  </Observation>
  
  </resource>
  <transaction>
    <method value="PUT"/>
    <url value="Observation/ID3347-lab"/>
  </transaction>
</entry>
<entry>
  <resource>
    
    
  <Observation>
  <id value="ID3348-lab"/>
    <text>
      <status value="generated"/>
      <div xmlns="http://www.w3.org/1999/xhtml">2012-01-17: RDW RBC-Rto = 14.4 %</div>
    </text>
    <code>
      <coding>
        <system value="http://loinc.org"/>
        <code value="30385-9"/>
        <display value="RDW RBC-Rto"/>
      </coding>
    </code>
    <valueQuantity>
      <value value="14.4"/>
      <units value="%"/>
      <system value="http://unitsofmeasure.org" />
      <code value=""/>
    </valueQuantity>
    
    <appliesDateTime value="2012-01-17"/>
    <status value="final"/>
    <reliability value="ok"/>
    <subject>
      <reference value="Patient/ID8888804"/>
    </subject>
  </Observation>
  
  </resource>
  <transaction>
    <method value="PUT"/>
    <url value="Observation/ID3348-lab"/>
  </transaction>
</entry>
<entry>
  <resource>
    
    
  <Observation>
  <id value="ID3349-lab"/>
    <text>
      <status value="generated"/>
      <div xmlns="http://www.w3.org/1999/xhtml">2012-01-17: WBC # Bld = 8.2 10*3/uL</div>
    </text>
    <code>
      <coding>
        <system value="http://loinc.org"/>
        <code value="26464-8"/>
        <display value="WBC # Bld"/>
      </coding>
    </code>
    <valueQuantity>
      <value value="8.2"/>
      <units value="10*3/uL"/>
      <system value="http://unitsofmeasure.org" />
      <code value=""/>
    </valueQuantity>
    
    <appliesDateTime value="2012-01-17"/>
    <status value="final"/>
    <reliability value="ok"/>
    <subject>
      <reference value="Patient/ID8888804"/>
    </subject>
  </Observation>
  
  </resource>
  <transaction>
    <method value="PUT"/>
    <url value="Observation/ID3349-lab"/>
  </transaction>
</entry>
<entry>
  <resource>
    
    
  <Observation>
  <id value="ID3350-lab"/>
    <text>
      <status value="generated"/>
      <div xmlns="http://www.w3.org/1999/xhtml">2012-01-17: Neutrophils NFr Bld Auto = 49 %</div>
    </text>
    <code>
      <coding>
        <system value="http://loinc.org"/>
        <code value="770-8"/>
        <display value="Neutrophils NFr Bld Auto"/>
      </coding>
    </code>
    <valueQuantity>
      <value value="49.0"/>
      <units value="%"/>
      <system value="http://unitsofmeasure.org" />
      <code value=""/>
    </valueQuantity>
    
    <appliesDateTime value="2012-01-17"/>
    <status value="final"/>
    <reliability value="ok"/>
    <subject>
      <reference value="Patient/ID8888804"/>
    </subject>
  </Observation>
  
  </resource>
  <transaction>
    <method value="PUT"/>
    <url value="Observation/ID3350-lab"/>
  </transaction>
</entry>
<entry>
  <resource>
    
    
  <Observation>
  <id value="ID3351-lab"/>
    <text>
      <status value="generated"/>
      <div xmlns="http://www.w3.org/1999/xhtml">2012-01-17: Lymphocytes NFr Bld = 41 %</div>
    </text>
    <code>
      <coding>
        <system value="http://loinc.org"/>
        <code value="26478-8"/>
        <display value="Lymphocytes NFr Bld"/>
      </coding>
    </code>
    <valueQuantity>
      <value value="41.0"/>
      <units value="%"/>
      <system value="http://unitsofmeasure.org" />
      <code value=""/>
    </valueQuantity>
    
    <appliesDateTime value="2012-01-17"/>
    <status value="final"/>
    <reliability value="ok"/>
    <subject>
      <reference value="Patient/ID8888804"/>
    </subject>
  </Observation>
  
  </resource>
  <transaction>
    <method value="PUT"/>
    <url value="Observation/ID3351-lab"/>
  </transaction>
</entry>
<entry>
  <resource>
    
    
  <Observation>
  <id value="ID3352-lab"/>
    <text>
      <status value="generated"/>
      <div xmlns="http://www.w3.org/1999/xhtml">2012-01-17: Basophils NFr Bld = 0 %</div>
    </text>
    <code>
      <coding>
        <system value="http://loinc.org"/>
        <code value="30180-4"/>
        <display value="Basophils NFr Bld"/>
      </coding>
    </code>
    <valueQuantity>
      <value value="0.0"/>
      <units value="%"/>
      <system value="http://unitsofmeasure.org" />
      <code value=""/>
    </valueQuantity>
    
    <appliesDateTime value="2012-01-17"/>
    <status value="final"/>
    <reliability value="ok"/>
    <subject>
      <reference value="Patient/ID8888804"/>
    </subject>
  </Observation>
  
  </resource>
  <transaction>
    <method value="PUT"/>
    <url value="Observation/ID3352-lab"/>
  </transaction>
</entry>
<entry>
  <resource>
    
    
  <Observation>
  <id value="ID3353-lab"/>
    <text>
      <status value="generated"/>
      <div xmlns="http://www.w3.org/1999/xhtml">2012-01-17: Eosinophil NFr Bld = 5 %</div>
    </text>
    <code>
      <coding>
        <system value="http://loinc.org"/>
        <code value="26450-7"/>
        <display value="Eosinophil NFr Bld"/>
      </coding>
    </code>
    <valueQuantity>
      <value value="5.0"/>
      <units value="%"/>
      <system value="http://unitsofmeasure.org" />
      <code value=""/>
    </valueQuantity>
    
    <appliesDateTime value="2012-01-17"/>
    <status value="final"/>
    <reliability value="ok"/>
    <subject>
      <reference value="Patient/ID8888804"/>
    </subject>
  </Observation>
  
  </resource>
  <transaction>
    <method value="PUT"/>
    <url value="Observation/ID3353-lab"/>
  </transaction>
</entry>
<entry>
  <resource>
    
    
  <Observation>
  <id value="ID3354-lab"/>
    <text>
      <status value="generated"/>
      <div xmlns="http://www.w3.org/1999/xhtml">2012-01-17: Monocytes NFr Bld = 6 %</div>
    </text>
    <code>
      <coding>
        <system value="http://loinc.org"/>
        <code value="26485-3"/>
        <display value="Monocytes NFr Bld"/>
      </coding>
    </code>
    <valueQuantity>
      <value value="6.0"/>
      <units value="%"/>
      <system value="http://unitsofmeasure.org" />
      <code value=""/>
    </valueQuantity>
    
    <appliesDateTime value="2012-01-17"/>
    <status value="final"/>
    <reliability value="ok"/>
    <subject>
      <reference value="Patient/ID8888804"/>
    </subject>
  </Observation>
  
  </resource>
  <transaction>
    <method value="PUT"/>
    <url value="Observation/ID3354-lab"/>
  </transaction>
</entry>
<entry>
  <resource>
    
    
  <Observation>
  <id value="ID3355-lab"/>
    <text>
      <status value="generated"/>
      <div xmlns="http://www.w3.org/1999/xhtml">2012-01-17: Platelet # Bld = 347 10*3/uL</div>
    </text>
    <code>
      <coding>
        <system value="http://loinc.org"/>
        <code value="26515-7"/>
        <display value="Platelet # Bld"/>
      </coding>
    </code>
    <valueQuantity>
      <value value="347.0"/>
      <units value="10*3/uL"/>
      <system value="http://unitsofmeasure.org" />
      <code value=""/>
    </valueQuantity>
    
    <appliesDateTime value="2012-01-17"/>
    <status value="final"/>
    <reliability value="ok"/>
    <subject>
      <reference value="Patient/ID8888804"/>
    </subject>
  </Observation>
  
  </resource>
  <transaction>
    <method value="PUT"/>
    <url value="Observation/ID3355-lab"/>
  </transaction>
</entry>
<entry>
  <resource>
    
    
  <Observation>
  <id value="ID3356-lab"/>
    <text>
      <status value="generated"/>
      <div xmlns="http://www.w3.org/1999/xhtml">2012-01-17: Glucose SerPl-mCnc = 82 mg/dL</div>
    </text>
    <code>
      <coding>
        <system value="http://loinc.org"/>
        <code value="2345-7"/>
        <display value="Glucose SerPl-mCnc"/>
      </coding>
    </code>
    <valueQuantity>
      <value value="82.0"/>
      <units value="mg/dL"/>
      <system value="http://unitsofmeasure.org" />
      <code value=""/>
    </valueQuantity>
    
    <appliesDateTime value="2012-01-17"/>
    <status value="final"/>
    <reliability value="ok"/>
    <subject>
      <reference value="Patient/ID8888804"/>
    </subject>
  </Observation>
  
  </resource>
  <transaction>
    <method value="PUT"/>
    <url value="Observation/ID3356-lab"/>
  </transaction>
</entry>
<entry>
  <resource>
    
    
  <Observation>
  <id value="ID3357-lab"/>
    <text>
      <status value="generated"/>
      <div xmlns="http://www.w3.org/1999/xhtml">2012-01-17: Calcium SerPl-mCnc = 8.9 mg/dL</div>
    </text>
    <code>
      <coding>
        <system value="http://loinc.org"/>
        <code value="17861-6"/>
        <display value="Calcium SerPl-mCnc"/>
      </coding>
    </code>
    <valueQuantity>
      <value value="8.9"/>
      <units value="mg/dL"/>
      <system value="http://unitsofmeasure.org" />
      <code value=""/>
    </valueQuantity>
    
    <appliesDateTime value="2012-01-17"/>
    <status value="final"/>
    <reliability value="ok"/>
    <subject>
      <reference value="Patient/ID8888804"/>
    </subject>
  </Observation>
  
  </resource>
  <transaction>
    <method value="PUT"/>
    <url value="Observation/ID3357-lab"/>
  </transaction>
</entry>
<entry>
  <resource>
    
    
  <Observation>
  <id value="ID3358-lab"/>
    <text>
      <status value="generated"/>
      <div xmlns="http://www.w3.org/1999/xhtml">2012-01-17: Prot SerPl-mCnc = 6.8 g/dL</div>
    </text>
    <code>
      <coding>
        <system value="http://loinc.org"/>
        <code value="2885-2"/>
        <display value="Prot SerPl-mCnc"/>
      </coding>
    </code>
    <valueQuantity>
      <value value="6.8"/>
      <units value="g/dL"/>
      <system value="http://unitsofmeasure.org" />
      <code value=""/>
    </valueQuantity>
    
    <appliesDateTime value="2012-01-17"/>
    <status value="final"/>
    <reliability value="ok"/>
    <subject>
      <reference value="Patient/ID8888804"/>
    </subject>
  </Observation>
  
  </resource>
  <transaction>
    <method value="PUT"/>
    <url value="Observation/ID3358-lab"/>
  </transaction>
</entry>
<entry>
  <resource>
    
    
  <Observation>
  <id value="ID3359-lab"/>
    <text>
      <status value="generated"/>
      <div xmlns="http://www.w3.org/1999/xhtml">2012-01-17: Albumin SerPl-mCnc = 4.2 g/dL</div>
    </text>
    <code>
      <coding>
        <system value="http://loinc.org"/>
        <code value="1751-7"/>
        <display value="Albumin SerPl-mCnc"/>
      </coding>
    </code>
    <valueQuantity>
      <value value="4.2"/>
      <units value="g/dL"/>
      <system value="http://unitsofmeasure.org" />
      <code value=""/>
    </valueQuantity>
    
    <appliesDateTime value="2012-01-17"/>
    <status value="final"/>
    <reliability value="ok"/>
    <subject>
      <reference value="Patient/ID8888804"/>
    </subject>
  </Observation>
  
  </resource>
  <transaction>
    <method value="PUT"/>
    <url value="Observation/ID3359-lab"/>
  </transaction>
</entry>
<entry>
  <resource>
    
    
  <Observation>
  <id value="ID3360-lab"/>
    <text>
      <status value="generated"/>
      <div xmlns="http://www.w3.org/1999/xhtml">2012-01-17: Sodium SerPl-sCnc = 144 mmol/L</div>
    </text>
    <code>
      <coding>
        <system value="http://loinc.org"/>
        <code value="2951-2"/>
        <display value="Sodium SerPl-sCnc"/>
      </coding>
    </code>
    <valueQuantity>
      <value value="144.0"/>
      <units value="mmol/L"/>
      <system value="http://unitsofmeasure.org" />
      <code value=""/>
    </valueQuantity>
    
    <appliesDateTime value="2012-01-17"/>
    <status value="final"/>
    <reliability value="ok"/>
    <subject>
      <reference value="Patient/ID8888804"/>
    </subject>
  </Observation>
  
  </resource>
  <transaction>
    <method value="PUT"/>
    <url value="Observation/ID3360-lab"/>
  </transaction>
</entry>
<entry>
  <resource>
    
    
  <Observation>
  <id value="ID3361-lab"/>
    <text>
      <status value="generated"/>
      <div xmlns="http://www.w3.org/1999/xhtml">2012-01-17: Potassium SerPl-sCnc = 4.7 mmol/L</div>
    </text>
    <code>
      <coding>
        <system value="http://loinc.org"/>
        <code value="2823-3"/>
        <display value="Potassium SerPl-sCnc"/>
      </coding>
    </code>
    <valueQuantity>
      <value value="4.7"/>
      <units value="mmol/L"/>
      <system value="http://unitsofmeasure.org" />
      <code value=""/>
    </valueQuantity>
    
    <appliesDateTime value="2012-01-17"/>
    <status value="final"/>
    <reliability value="ok"/>
    <subject>
      <reference value="Patient/ID8888804"/>
    </subject>
  </Observation>
  
  </resource>
  <transaction>
    <method value="PUT"/>
    <url value="Observation/ID3361-lab"/>
  </transaction>
</entry>
<entry>
  <resource>
    
    
  <Observation>
  <id value="ID3362-lab"/>
    <text>
      <status value="generated"/>
      <div xmlns="http://www.w3.org/1999/xhtml">2012-01-17: CO2 SerPl-sCnc = 23 mmol/L</div>
    </text>
    <code>
      <coding>
        <system value="http://loinc.org"/>
        <code value="2028-9"/>
        <display value="CO2 SerPl-sCnc"/>
      </coding>
    </code>
    <valueQuantity>
      <value value="23.0"/>
      <units value="mmol/L"/>
      <system value="http://unitsofmeasure.org" />
      <code value=""/>
    </valueQuantity>
    
    <appliesDateTime value="2012-01-17"/>
    <status value="final"/>
    <reliability value="ok"/>
    <subject>
      <reference value="Patient/ID8888804"/>
    </subject>
  </Observation>
  
  </resource>
  <transaction>
    <method value="PUT"/>
    <url value="Observation/ID3362-lab"/>
  </transaction>
</entry>
<entry>
  <resource>
    
    
  <Observation>
  <id value="ID3363-lab"/>
    <text>
      <status value="generated"/>
      <div xmlns="http://www.w3.org/1999/xhtml">2012-01-17: Chloride SerPl-sCnc = 104 mmol/L</div>
    </text>
    <code>
      <coding>
        <system value="http://loinc.org"/>
        <code value="2075-0"/>
        <display value="Chloride SerPl-sCnc"/>
      </coding>
    </code>
    <valueQuantity>
      <value value="104.0"/>
      <units value="mmol/L"/>
      <system value="http://unitsofmeasure.org" />
      <code value=""/>
    </valueQuantity>
    
    <appliesDateTime value="2012-01-17"/>
    <status value="final"/>
    <reliability value="ok"/>
    <subject>
      <reference value="Patient/ID8888804"/>
    </subject>
  </Observation>
  
  </resource>
  <transaction>
    <method value="PUT"/>
    <url value="Observation/ID3363-lab"/>
  </transaction>
</entry>
<entry>
  <resource>
    
    
  <Observation>
  <id value="ID3364-lab"/>
    <text>
      <status value="generated"/>
      <div xmlns="http://www.w3.org/1999/xhtml">2012-01-17: BUN SerPl-mCnc = 12 mg/dL</div>
    </text>
    <code>
      <coding>
        <system value="http://loinc.org"/>
        <code value="3094-0"/>
        <display value="BUN SerPl-mCnc"/>
      </coding>
    </code>
    <valueQuantity>
      <value value="12.0"/>
      <units value="mg/dL"/>
      <system value="http://unitsofmeasure.org" />
      <code value=""/>
    </valueQuantity>
    
    <appliesDateTime value="2012-01-17"/>
    <status value="final"/>
    <reliability value="ok"/>
    <subject>
      <reference value="Patient/ID8888804"/>
    </subject>
  </Observation>
  
  </resource>
  <transaction>
    <method value="PUT"/>
    <url value="Observation/ID3364-lab"/>
  </transaction>
</entry>
<entry>
  <resource>
    
    
  <Observation>
  <id value="ID3365-lab"/>
    <text>
      <status value="generated"/>
      <div xmlns="http://www.w3.org/1999/xhtml">2012-01-17: Creat SerPl-mCnc = 0.82 mg/dL</div>
    </text>
    <code>
      <coding>
        <system value="http://loinc.org"/>
        <code value="2160-0"/>
        <display value="Creat SerPl-mCnc"/>
      </coding>
    </code>
    <valueQuantity>
      <value value="0.82"/>
      <units value="mg/dL"/>
      <system value="http://unitsofmeasure.org" />
      <code value=""/>
    </valueQuantity>
    
    <appliesDateTime value="2012-01-17"/>
    <status value="final"/>
    <reliability value="ok"/>
    <subject>
      <reference value="Patient/ID8888804"/>
    </subject>
  </Observation>
  
  </resource>
  <transaction>
    <method value="PUT"/>
    <url value="Observation/ID3365-lab"/>
  </transaction>
</entry>
<entry>
  <resource>
    
    
  <Observation>
  <id value="ID3366-lab"/>
    <text>
      <status value="generated"/>
      <div xmlns="http://www.w3.org/1999/xhtml">2012-01-17: ALP SerPl-cCnc = 65 U/L</div>
    </text>
    <code>
      <coding>
        <system value="http://loinc.org"/>
        <code value="6768-6"/>
        <display value="ALP SerPl-cCnc"/>
      </coding>
    </code>
    <valueQuantity>
      <value value="65.0"/>
      <units value="U/L"/>
      <system value="http://unitsofmeasure.org" />
      <code value=""/>
    </valueQuantity>
    
    <appliesDateTime value="2012-01-17"/>
    <status value="final"/>
    <reliability value="ok"/>
    <subject>
      <reference value="Patient/ID8888804"/>
    </subject>
  </Observation>
  
  </resource>
  <transaction>
    <method value="PUT"/>
    <url value="Observation/ID3366-lab"/>
  </transaction>
</entry>
<entry>
  <resource>
    
    
  <Observation>
  <id value="ID3367-lab"/>
    <text>
      <status value="generated"/>
      <div xmlns="http://www.w3.org/1999/xhtml">2012-01-17: ALT SerPl-cCnc = 52 U/L</div>
    </text>
    <code>
      <coding>
        <system value="http://loinc.org"/>
        <code value="1742-6"/>
        <display value="ALT SerPl-cCnc"/>
      </coding>
    </code>
    <valueQuantity>
      <value value="52.0"/>
      <units value="U/L"/>
      <system value="http://unitsofmeasure.org" />
      <code value=""/>
    </valueQuantity>
    
    <appliesDateTime value="2012-01-17"/>
    <status value="final"/>
    <reliability value="ok"/>
    <subject>
      <reference value="Patient/ID8888804"/>
    </subject>
  </Observation>
  
  </resource>
  <transaction>
    <method value="PUT"/>
    <url value="Observation/ID3367-lab"/>
  </transaction>
</entry>
<entry>
  <resource>
    
    
  <Observation>
  <id value="ID3368-lab"/>
    <text>
      <status value="generated"/>
      <div xmlns="http://www.w3.org/1999/xhtml">2012-01-17: AST SerPl-cCnc = 38 U/L</div>
    </text>
    <code>
      <coding>
        <system value="http://loinc.org"/>
        <code value="1920-8"/>
        <display value="AST SerPl-cCnc"/>
      </coding>
    </code>
    <valueQuantity>
      <value value="38.0"/>
      <units value="U/L"/>
      <system value="http://unitsofmeasure.org" />
      <code value=""/>
    </valueQuantity>
    
    <appliesDateTime value="2012-01-17"/>
    <status value="final"/>
    <reliability value="ok"/>
    <subject>
      <reference value="Patient/ID8888804"/>
    </subject>
  </Observation>
  
  </resource>
  <transaction>
    <method value="PUT"/>
    <url value="Observation/ID3368-lab"/>
  </transaction>
</entry>
<entry>
  <resource>
    
    
  <Observation>
  <id value="ID3369-lab"/>
    <text>
      <status value="generated"/>
      <div xmlns="http://www.w3.org/1999/xhtml">2012-01-17: Bilirub SerPl-mCnc = 0.5 mg/dL</div>
    </text>
    <code>
      <coding>
        <system value="http://loinc.org"/>
        <code value="1975-2"/>
        <display value="Bilirub SerPl-mCnc"/>
      </coding>
    </code>
    <valueQuantity>
      <value value="0.5"/>
      <units value="mg/dL"/>
      <system value="http://unitsofmeasure.org" />
      <code value=""/>
    </valueQuantity>
    
    <appliesDateTime value="2012-01-17"/>
    <status value="final"/>
    <reliability value="ok"/>
    <subject>
      <reference value="Patient/ID8888804"/>
    </subject>
  </Observation>
  
  </resource>
  <transaction>
    <method value="PUT"/>
    <url value="Observation/ID3369-lab"/>
  </transaction>
</entry>
<entry>
  <resource>
    
    
  <Observation>
  <id value="ID3370-lab"/>
    <text>
      <status value="generated"/>
      <div xmlns="http://www.w3.org/1999/xhtml">2012-01-17: 25(OH)D3 SerPl-mCnc = 45 ng/mL</div>
    </text>
    <code>
      <coding>
        <system value="http://loinc.org"/>
        <code value="1989-3"/>
        <display value="25(OH)D3 SerPl-mCnc"/>
      </coding>
    </code>
    <valueQuantity>
      <value value="45.0"/>
      <units value="ng/mL"/>
      <system value="http://unitsofmeasure.org" />
      <code value=""/>
    </valueQuantity>
    
    <appliesDateTime value="2012-01-17"/>
    <status value="final"/>
    <reliability value="ok"/>
    <subject>
      <reference value="Patient/ID8888804"/>
    </subject>
  </Observation>
  
  </resource>
  <transaction>
    <method value="PUT"/>
    <url value="Observation/ID3370-lab"/>
  </transaction>
</entry>
<entry>
  <resource>
    
    
  <Observation>
  <id value="ID3371-lab"/>
    <text>
      <status value="generated"/>
      <div xmlns="http://www.w3.org/1999/xhtml">2012-01-17: PSA SerPl-mCnc = 0.82 ng/mL</div>
    </text>
    <code>
      <coding>
        <system value="http://loinc.org"/>
        <code value="2857-1"/>
        <display value="PSA SerPl-mCnc"/>
      </coding>
    </code>
    <valueQuantity>
      <value value="0.82"/>
      <units value="ng/mL"/>
      <system value="http://unitsofmeasure.org" />
      <code value=""/>
    </valueQuantity>
    
    <appliesDateTime value="2012-01-17"/>
    <status value="final"/>
    <reliability value="ok"/>
    <subject>
      <reference value="Patient/ID8888804"/>
    </subject>
  </Observation>
  
  </resource>
  <transaction>
    <method value="PUT"/>
    <url value="Observation/ID3371-lab"/>
  </transaction>
</entry>
<entry>
  <resource>
    
    
  <Observation>
  <id value="ID3372-lab"/>
    <text>
      <status value="generated"/>
      <div xmlns="http://www.w3.org/1999/xhtml">2012-01-17: Urate SerPl-mCnc = 6.8 mg/dL</div>
    </text>
    <code>
      <coding>
        <system value="http://loinc.org"/>
        <code value="3084-1"/>
        <display value="Urate SerPl-mCnc"/>
      </coding>
    </code>
    <valueQuantity>
      <value value="6.8"/>
      <units value="mg/dL"/>
      <system value="http://unitsofmeasure.org" />
      <code value=""/>
    </valueQuantity>
    
    <appliesDateTime value="2012-01-17"/>
    <status value="final"/>
    <reliability value="ok"/>
    <subject>
      <reference value="Patient/ID8888804"/>
    </subject>
  </Observation>
  
  </resource>
  <transaction>
    <method value="PUT"/>
    <url value="Observation/ID3372-lab"/>
  </transaction>
</entry>
<entry>
  <resource>
    
    
  <Observation>
  <id value="ID3373-lab"/>
    <text>
      <status value="generated"/>
      <div xmlns="http://www.w3.org/1999/xhtml">2012-01-17: Testost SerPl-mCnc = 462 ng/dL</div>
    </text>
    <code>
      <coding>
        <system value="http://loinc.org"/>
        <code value="2986-8"/>
        <display value="Testost SerPl-mCnc"/>
      </coding>
    </code>
    <valueQuantity>
      <value value="462.0"/>
      <units value="ng/dL"/>
      <system value="http://unitsofmeasure.org" />
      <code value=""/>
    </valueQuantity>
    
    <appliesDateTime value="2012-01-17"/>
    <status value="final"/>
    <reliability value="ok"/>
    <subject>
      <reference value="Patient/ID8888804"/>
    </subject>
  </Observation>
  
  </resource>
  <transaction>
    <method value="PUT"/>
    <url value="Observation/ID3373-lab"/>
  </transaction>
</entry>
<entry>
  <resource>
    
    
  <Observation>
  <id value="ID3374-lab"/>
    <text>
      <status value="generated"/>
      <div xmlns="http://www.w3.org/1999/xhtml">2012-01-17: Testost Free SerPl-sCnc = 125 pmol/L</div>
    </text>
    <code>
      <coding>
        <system value="http://loinc.org"/>
        <code value="14914-6"/>
        <display value="Testost Free SerPl-sCnc"/>
      </coding>
    </code>
    <valueQuantity>
      <value value="125.0"/>
      <units value="pmol/L"/>
      <system value="http://unitsofmeasure.org" />
      <code value=""/>
    </valueQuantity>
    
    <appliesDateTime value="2012-01-17"/>
    <status value="final"/>
    <reliability value="ok"/>
    <subject>
      <reference value="Patient/ID8888804"/>
    </subject>
  </Observation>
  
  </resource>
  <transaction>
    <method value="PUT"/>
    <url value="Observation/ID3374-lab"/>
  </transaction>
</entry>
<entry>
  <resource>
    
    
  <Observation>
  <id value="ID3375-lab"/>
    <text>
      <status value="generated"/>
      <div xmlns="http://www.w3.org/1999/xhtml">2012-01-17: Cholest SerPl-mCnc = 155 mg/dL</div>
    </text>
    <code>
      <coding>
        <system value="http://loinc.org"/>
        <code value="2093-3"/>
        <display value="Cholest SerPl-mCnc"/>
      </coding>
    </code>
    <valueQuantity>
      <value value="155.0"/>
      <units value="mg/dL"/>
      <system value="http://unitsofmeasure.org" />
      <code value=""/>
    </valueQuantity>
    
    <appliesDateTime value="2012-01-17"/>
    <status value="final"/>
    <reliability value="ok"/>
    <subject>
      <reference value="Patient/ID8888804"/>
    </subject>
  </Observation>
  
  </resource>
  <transaction>
    <method value="PUT"/>
    <url value="Observation/ID3375-lab"/>
  </transaction>
</entry>
<entry>
  <resource>
    
    
  <Observation>
  <id value="ID3376-lab"/>
    <text>
      <status value="generated"/>
      <div xmlns="http://www.w3.org/1999/xhtml">2012-01-17: HDLc SerPl-mCnc = 45 mg/dL</div>
    </text>
    <code>
      <coding>
        <system value="http://loinc.org"/>
        <code value="2085-9"/>
        <display value="HDLc SerPl-mCnc"/>
      </coding>
    </code>
    <valueQuantity>
      <value value="45.0"/>
      <units value="mg/dL"/>
      <system value="http://unitsofmeasure.org" />
      <code value=""/>
    </valueQuantity>
    
    <appliesDateTime value="2012-01-17"/>
    <status value="final"/>
    <reliability value="ok"/>
    <subject>
      <reference value="Patient/ID8888804"/>
    </subject>
  </Observation>
  
  </resource>
  <transaction>
    <method value="PUT"/>
    <url value="Observation/ID3376-lab"/>
  </transaction>
</entry>
<entry>
  <resource>
    
    
  <Observation>
  <id value="ID3377-lab"/>
    <text>
      <status value="generated"/>
      <div xmlns="http://www.w3.org/1999/xhtml">2012-01-17: LDLc SerPl Direct Assay-mCnc = 72 mg/dL</div>
    </text>
    <code>
      <coding>
        <system value="http://loinc.org"/>
        <code value="18262-6"/>
        <display value="LDLc SerPl Direct Assay-mCnc"/>
      </coding>
    </code>
    <valueQuantity>
      <value value="72.0"/>
      <units value="mg/dL"/>
      <system value="http://unitsofmeasure.org" />
      <code value=""/>
    </valueQuantity>
    
    <appliesDateTime value="2012-01-17"/>
    <status value="final"/>
    <reliability value="ok"/>
    <subject>
      <reference value="Patient/ID8888804"/>
    </subject>
  </Observation>
  
  </resource>
  <transaction>
    <method value="PUT"/>
    <url value="Observation/ID3377-lab"/>
  </transaction>
</entry>
<entry>
  <resource>
    
    
  <Observation>
  <id value="ID3378-lab"/>
    <text>
      <status value="generated"/>
      <div xmlns="http://www.w3.org/1999/xhtml">2012-01-17: Trigl SerPl-mCnc = 66 mg/dL</div>
    </text>
    <code>
      <coding>
        <system value="http://loinc.org"/>
        <code value="2571-8"/>
        <display value="Trigl SerPl-mCnc"/>
      </coding>
    </code>
    <valueQuantity>
      <value value="66.0"/>
      <units value="mg/dL"/>
      <system value="http://unitsofmeasure.org" />
      <code value=""/>
    </valueQuantity>
    
    <appliesDateTime value="2012-01-17"/>
    <status value="final"/>
    <reliability value="ok"/>
    <subject>
      <reference value="Patient/ID8888804"/>
    </subject>
  </Observation>
  
  </resource>
  <transaction>
    <method value="PUT"/>
    <url value="Observation/ID3378-lab"/>
  </transaction>
</entry>
<entry>
  <resource>
    
    
  <Observation>
  <id value="ID3379-lab"/>
    <text>
      <status value="generated"/>
      <div xmlns="http://www.w3.org/1999/xhtml">2012-01-17: TSH SerPl DL&lt;=0.005 mU/L-aCnc = 4.64 m[IU]/L</div>
    </text>
    <code>
      <coding>
        <system value="http://loinc.org"/>
        <code value="11580-8"/>
        <display value="TSH SerPl DL&lt;=0.005 mU/L-aCnc"/>
      </coding>
    </code>
    <valueQuantity>
      <value value="4.64"/>
      <units value="m[IU]/L"/>
      <system value="http://unitsofmeasure.org" />
      <code value=""/>
    </valueQuantity>
    
    <appliesDateTime value="2012-01-17"/>
    <status value="final"/>
    <reliability value="ok"/>
    <subject>
      <reference value="Patient/ID8888804"/>
    </subject>
  </Observation>
  
  </resource>
  <transaction>
    <method value="PUT"/>
    <url value="Observation/ID3379-lab"/>
  </transaction>
</entry>
<entry>
  <resource>
    
    
  <Observation>
  <id value="ID3380-lab"/>
    <text>
      <status value="generated"/>
      <div xmlns="http://www.w3.org/1999/xhtml">2012-01-17: T4 Free SerPl-mCnc = 0.8 ng/dL</div>
    </text>
    <code>
      <coding>
        <system value="http://loinc.org"/>
        <code value="3024-7"/>
        <display value="T4 Free SerPl-mCnc"/>
      </coding>
    </code>
    <valueQuantity>
      <value value="0.8"/>
      <units value="ng/dL"/>
      <system value="http://unitsofmeasure.org" />
      <code value=""/>
    </valueQuantity>
    
    <appliesDateTime value="2012-01-17"/>
    <status value="final"/>
    <reliability value="ok"/>
    <subject>
      <reference value="Patient/ID8888804"/>
    </subject>
  </Observation>
  
  </resource>
  <transaction>
    <method value="PUT"/>
    <url value="Observation/ID3380-lab"/>
  </transaction>
</entry>
<entry>
  <resource>
    
    
  <Observation>
  <id value="ID3381-lab"/>
    <text>
      <status value="generated"/>
      <div xmlns="http://www.w3.org/1999/xhtml">2012-01-17: Appearance Ur = clear, gold </div>
    </text>
    <code>
      <coding>
        <system value="http://loinc.org"/>
        <code value="5767-9"/>
        <display value="Appearance Ur"/>
      </coding>
    </code>
    <valueString value="clear, gold"/>
    
    <appliesDateTime value="2012-01-17"/>
    <status value="final"/>
    <reliability value="ok"/>
    <subject>
      <reference value="Patient/ID8888804"/>
    </subject>
  </Observation>
  
  </resource>
  <transaction>
    <method value="PUT"/>
    <url value="Observation/ID3381-lab"/>
  </transaction>
</entry>
<entry>
  <resource>
    
    
  <Observation>
  <id value="ID3382-lab"/>
    <extension url="http://fhir-registry.smarthealthit.org/StructureDefinition/labs#value-range" >
        <valueString value='[&#39;Negative&#39;, &#39;Positive&#39;]'/>
    </extension>
    
    <text>
      <status value="generated"/>
      <div xmlns="http://www.w3.org/1999/xhtml">2012-01-17: Bilirub Ur Ql Strip = Negative </div>
    </text>
    <code>
      <coding>
        <system value="http://loinc.org"/>
        <code value="5770-3"/>
        <display value="Bilirub Ur Ql Strip"/>
      </coding>
    </code>
    <valueString value="Negative"/>
    
    <appliesDateTime value="2012-01-17"/>
    <status value="final"/>
    <reliability value="ok"/>
    <subject>
      <reference value="Patient/ID8888804"/>
    </subject>
  </Observation>
  
  </resource>
  <transaction>
    <method value="PUT"/>
    <url value="Observation/ID3382-lab"/>
  </transaction>
</entry>
<entry>
  <resource>
    
    
  <Observation>
  <id value="ID3383-lab"/>
    <text>
      <status value="generated"/>
      <div xmlns="http://www.w3.org/1999/xhtml">2012-01-17: Glucose Ur Strip-mCnc = 0 mg/dL</div>
    </text>
    <code>
      <coding>
        <system value="http://loinc.org"/>
        <code value="5792-7"/>
        <display value="Glucose Ur Strip-mCnc"/>
      </coding>
    </code>
    <valueQuantity>
      <value value="0.0"/>
      <units value="mg/dL"/>
      <system value="http://unitsofmeasure.org" />
      <code value=""/>
    </valueQuantity>
    
    <appliesDateTime value="2012-01-17"/>
    <status value="final"/>
    <reliability value="ok"/>
    <subject>
      <reference value="Patient/ID8888804"/>
    </subject>
  </Observation>
  
  </resource>
  <transaction>
    <method value="PUT"/>
    <url value="Observation/ID3383-lab"/>
  </transaction>
</entry>
<entry>
  <resource>
    
    
  <Observation>
  <id value="ID3384-lab"/>
    <extension url="http://fhir-registry.smarthealthit.org/StructureDefinition/labs#value-range" >
        <valueString value='[&#39;Negative&#39;, &#39;Positive&#39;]'/>
    </extension>
    
    <text>
      <status value="generated"/>
      <div xmlns="http://www.w3.org/1999/xhtml">2012-01-17: Ketones Ur Ql = Negative </div>
    </text>
    <code>
      <coding>
        <system value="http://loinc.org"/>
        <code value="33903-6"/>
        <display value="Ketones Ur Ql"/>
      </coding>
    </code>
    <valueString value="Negative"/>
    
    <appliesDateTime value="2012-01-17"/>
    <status value="final"/>
    <reliability value="ok"/>
    <subject>
      <reference value="Patient/ID8888804"/>
    </subject>
  </Observation>
  
  </resource>
  <transaction>
    <method value="PUT"/>
    <url value="Observation/ID3384-lab"/>
  </transaction>
</entry>
<entry>
  <resource>
    
    
  <Observation>
  <id value="ID3385-lab"/>
    <extension url="http://fhir-registry.smarthealthit.org/StructureDefinition/labs#value-range" >
        <valueString value='[&#39;Negative&#39;, &#39;Positive&#39;]'/>
    </extension>
    
    <text>
      <status value="generated"/>
      <div xmlns="http://www.w3.org/1999/xhtml">2012-01-17: Leukocyte esterase Ur Ql Strip = Negative </div>
    </text>
    <code>
      <coding>
        <system value="http://loinc.org"/>
        <code value="5799-2"/>
        <display value="Leukocyte esterase Ur Ql Strip"/>
      </coding>
    </code>
    <valueString value="Negative"/>
    
    <appliesDateTime value="2012-01-17"/>
    <status value="final"/>
    <reliability value="ok"/>
    <subject>
      <reference value="Patient/ID8888804"/>
    </subject>
  </Observation>
  
  </resource>
  <transaction>
    <method value="PUT"/>
    <url value="Observation/ID3385-lab"/>
  </transaction>
</entry>
<entry>
  <resource>
    
    
  <Observation>
  <id value="ID3386-lab"/>
    <extension url="http://fhir-registry.smarthealthit.org/StructureDefinition/labs#value-range" >
        <valueString value='[&#39;Negative&#39;, &#39;Positive&#39;]'/>
    </extension>
    
    <text>
      <status value="generated"/>
      <div xmlns="http://www.w3.org/1999/xhtml">2012-01-17: Nitrite Ur Ql Strip = Negative </div>
    </text>
    <code>
      <coding>
        <system value="http://loinc.org"/>
        <code value="5802-4"/>
        <display value="Nitrite Ur Ql Strip"/>
      </coding>
    </code>
    <valueString value="Negative"/>
    
    <appliesDateTime value="2012-01-17"/>
    <status value="final"/>
    <reliability value="ok"/>
    <subject>
      <reference value="Patient/ID8888804"/>
    </subject>
  </Observation>
  
  </resource>
  <transaction>
    <method value="PUT"/>
    <url value="Observation/ID3386-lab"/>
  </transaction>
</entry>
<entry>
  <resource>
    
    
  <Observation>
  <id value="ID3387-lab"/>
    <extension url="http://fhir-registry.smarthealthit.org/StructureDefinition/labs#value-range" >
        <valueString value='[&#39;Negative&#39;, &#39;Trace&#39;, &#39;Positive&#39;]'/>
    </extension>
    
    <text>
      <status value="generated"/>
      <div xmlns="http://www.w3.org/1999/xhtml">2012-01-17: Hgb Ur Ql Strip = Trace </div>
    </text>
    <code>
      <coding>
        <system value="http://loinc.org"/>
        <code value="5794-3"/>
        <display value="Hgb Ur Ql Strip"/>
      </coding>
    </code>
    <valueString value="Trace"/>
    
    <appliesDateTime value="2012-01-17"/>
    <status value="final"/>
    <reliability value="ok"/>
    <subject>
      <reference value="Patient/ID8888804"/>
    </subject>
  </Observation>
  
  </resource>
  <transaction>
    <method value="PUT"/>
    <url value="Observation/ID3387-lab"/>
  </transaction>
</entry>
<entry>
  <resource>
    
    
  <Observation>
  <id value="ID3388-lab"/>
    <text>
      <status value="generated"/>
      <div xmlns="http://www.w3.org/1999/xhtml">2012-01-17: pH Ur Strip = 6 [pH]</div>
    </text>
    <code>
      <coding>
        <system value="http://loinc.org"/>
        <code value="5803-2"/>
        <display value="pH Ur Strip"/>
      </coding>
    </code>
    <valueQuantity>
      <value value="6.0"/>
      <units value="[pH]"/>
      <system value="http://unitsofmeasure.org" />
      <code value=""/>
    </valueQuantity>
    
    <appliesDateTime value="2012-01-17"/>
    <status value="final"/>
    <reliability value="ok"/>
    <subject>
      <reference value="Patient/ID8888804"/>
    </subject>
  </Observation>
  
  </resource>
  <transaction>
    <method value="PUT"/>
    <url value="Observation/ID3388-lab"/>
  </transaction>
</entry>
<entry>
  <resource>
    
    
  <Observation>
  <id value="ID3389-lab"/>
    <text>
      <status value="generated"/>
      <div xmlns="http://www.w3.org/1999/xhtml">2012-01-17: Prot Ur Strip-mCnc = 0 mg/dL</div>
    </text>
    <code>
      <coding>
        <system value="http://loinc.org"/>
        <code value="5804-0"/>
        <display value="Prot Ur Strip-mCnc"/>
      </coding>
    </code>
    <valueQuantity>
      <value value="0.0"/>
      <units value="mg/dL"/>
      <system value="http://unitsofmeasure.org" />
      <code value=""/>
    </valueQuantity>
    
    <appliesDateTime value="2012-01-17"/>
    <status value="final"/>
    <reliability value="ok"/>
    <subject>
      <reference value="Patient/ID8888804"/>
    </subject>
  </Observation>
  
  </resource>
  <transaction>
    <method value="PUT"/>
    <url value="Observation/ID3389-lab"/>
  </transaction>
</entry>
<entry>
  <resource>
    
    
  <Observation>
  <id value="ID3390-lab"/>
    <text>
      <status value="generated"/>
      <div xmlns="http://www.w3.org/1999/xhtml">2012-01-17: Sp Gr Ur Strip = 1.025 </div>
    </text>
    <code>
      <coding>
        <system value="http://loinc.org"/>
        <code value="5811-5"/>
        <display value="Sp Gr Ur Strip"/>
      </coding>
    </code>
    <valueQuantity>
      <value value="1.025"/>
      <units value=""/>
      <system value="http://unitsofmeasure.org" />
      <code value=""/>
    </valueQuantity>
    
    <appliesDateTime value="2012-01-17"/>
    <status value="final"/>
    <reliability value="ok"/>
    <subject>
      <reference value="Patient/ID8888804"/>
    </subject>
  </Observation>
  
  </resource>
  <transaction>
    <method value="PUT"/>
    <url value="Observation/ID3390-lab"/>
  </transaction>
</entry>
<entry>
  <resource>
    
    
  <Observation>
  <id value="ID3391-lab"/>
    <text>
      <status value="generated"/>
      <div xmlns="http://www.w3.org/1999/xhtml">2010-06-04: Hct VFr Bld Auto = 46.9 %</div>
    </text>
    <code>
      <coding>
        <system value="http://loinc.org"/>
        <code value="4544-3"/>
        <display value="Hct VFr Bld Auto"/>
      </coding>
    </code>
    <valueQuantity>
      <value value="46.9"/>
      <units value="%"/>
      <system value="http://unitsofmeasure.org" />
      <code value=""/>
    </valueQuantity>
    
    <appliesDateTime value="2010-06-04"/>
    <status value="final"/>
    <reliability value="ok"/>
    <subject>
      <reference value="Patient/ID8888804"/>
    </subject>
  </Observation>
  
  </resource>
  <transaction>
    <method value="PUT"/>
    <url value="Observation/ID3391-lab"/>
  </transaction>
</entry>
<entry>
  <resource>
    
    
  <Observation>
  <id value="ID3392-lab"/>
    <text>
      <status value="generated"/>
      <div xmlns="http://www.w3.org/1999/xhtml">2010-06-04: RBC # Bld Auto = 4.18 10*6/uL</div>
    </text>
    <code>
      <coding>
        <system value="http://loinc.org"/>
        <code value="789-8"/>
        <display value="RBC # Bld Auto"/>
      </coding>
    </code>
    <valueQuantity>
      <value value="4.18"/>
      <units value="10*6/uL"/>
      <system value="http://unitsofmeasure.org" />
      <code value=""/>
    </valueQuantity>
    
    <appliesDateTime value="2010-06-04"/>
    <status value="final"/>
    <reliability value="ok"/>
    <subject>
      <reference value="Patient/ID8888804"/>
    </subject>
  </Observation>
  
  </resource>
  <transaction>
    <method value="PUT"/>
    <url value="Observation/ID3392-lab"/>
  </transaction>
</entry>
<entry>
  <resource>
    
    
  <Observation>
  <id value="ID3393-lab"/>
    <text>
      <status value="generated"/>
      <div xmlns="http://www.w3.org/1999/xhtml">2010-06-04: MCV RBC = 88 fL</div>
    </text>
    <code>
      <coding>
        <system value="http://loinc.org"/>
        <code value="30428-7"/>
        <display value="MCV RBC"/>
      </coding>
    </code>
    <valueQuantity>
      <value value="88.0"/>
      <units value="fL"/>
      <system value="http://unitsofmeasure.org" />
      <code value=""/>
    </valueQuantity>
    
    <appliesDateTime value="2010-06-04"/>
    <status value="final"/>
    <reliability value="ok"/>
    <subject>
      <reference value="Patient/ID8888804"/>
    </subject>
  </Observation>
  
  </resource>
  <transaction>
    <method value="PUT"/>
    <url value="Observation/ID3393-lab"/>
  </transaction>
</entry>
<entry>
  <resource>
    
    
  <Observation>
  <id value="ID3394-lab"/>
    <text>
      <status value="generated"/>
      <div xmlns="http://www.w3.org/1999/xhtml">2010-06-04: MCH RBC Qn Auto = 28 pg</div>
    </text>
    <code>
      <coding>
        <system value="http://loinc.org"/>
        <code value="785-6"/>
        <display value="MCH RBC Qn Auto"/>
      </coding>
    </code>
    <valueQuantity>
      <value value="28.0"/>
      <units value="pg"/>
      <system value="http://unitsofmeasure.org" />
      <code value=""/>
    </valueQuantity>
    
    <appliesDateTime value="2010-06-04"/>
    <status value="final"/>
    <reliability value="ok"/>
    <subject>
      <reference value="Patient/ID8888804"/>
    </subject>
  </Observation>
  
  </resource>
  <transaction>
    <method value="PUT"/>
    <url value="Observation/ID3394-lab"/>
  </transaction>
</entry>
<entry>
  <resource>
    
    
  <Observation>
  <id value="ID3395-lab"/>
    <text>
      <status value="generated"/>
      <div xmlns="http://www.w3.org/1999/xhtml">2010-06-04: MCHC RBC Auto-mCnc = 30 g/dL</div>
    </text>
    <code>
      <coding>
        <system value="http://loinc.org"/>
        <code value="786-4"/>
        <display value="MCHC RBC Auto-mCnc"/>
      </coding>
    </code>
    <valueQuantity>
      <value value="30.0"/>
      <units value="g/dL"/>
      <system value="http://unitsofmeasure.org" />
      <code value=""/>
    </valueQuantity>
    
    <appliesDateTime value="2010-06-04"/>
    <status value="final"/>
    <reliability value="ok"/>
    <subject>
      <reference value="Patient/ID8888804"/>
    </subject>
  </Observation>
  
  </resource>
  <transaction>
    <method value="PUT"/>
    <url value="Observation/ID3395-lab"/>
  </transaction>
</entry>
<entry>
  <resource>
    
    
  <Observation>
  <id value="ID3396-lab"/>
    <text>
      <status value="generated"/>
      <div xmlns="http://www.w3.org/1999/xhtml">2010-06-04: RDW RBC-Rto = 14.6 %</div>
    </text>
    <code>
      <coding>
        <system value="http://loinc.org"/>
        <code value="30385-9"/>
        <display value="RDW RBC-Rto"/>
      </coding>
    </code>
    <valueQuantity>
      <value value="14.6"/>
      <units value="%"/>
      <system value="http://unitsofmeasure.org" />
      <code value=""/>
    </valueQuantity>
    
    <appliesDateTime value="2010-06-04"/>
    <status value="final"/>
    <reliability value="ok"/>
    <subject>
      <reference value="Patient/ID8888804"/>
    </subject>
  </Observation>
  
  </resource>
  <transaction>
    <method value="PUT"/>
    <url value="Observation/ID3396-lab"/>
  </transaction>
</entry>
<entry>
  <resource>
    
    
  <Observation>
  <id value="ID3397-lab"/>
    <text>
      <status value="generated"/>
      <div xmlns="http://www.w3.org/1999/xhtml">2010-06-04: WBC # Bld = 7.1 10*3/uL</div>
    </text>
    <code>
      <coding>
        <system value="http://loinc.org"/>
        <code value="26464-8"/>
        <display value="WBC # Bld"/>
      </coding>
    </code>
    <valueQuantity>
      <value value="7.1"/>
      <units value="10*3/uL"/>
      <system value="http://unitsofmeasure.org" />
      <code value=""/>
    </valueQuantity>
    
    <appliesDateTime value="2010-06-04"/>
    <status value="final"/>
    <reliability value="ok"/>
    <subject>
      <reference value="Patient/ID8888804"/>
    </subject>
  </Observation>
  
  </resource>
  <transaction>
    <method value="PUT"/>
    <url value="Observation/ID3397-lab"/>
  </transaction>
</entry>
<entry>
  <resource>
    
    
  <Observation>
  <id value="ID3398-lab"/>
    <text>
      <status value="generated"/>
      <div xmlns="http://www.w3.org/1999/xhtml">2010-06-04: Neutrophils NFr Bld Auto = 54 %</div>
    </text>
    <code>
      <coding>
        <system value="http://loinc.org"/>
        <code value="770-8"/>
        <display value="Neutrophils NFr Bld Auto"/>
      </coding>
    </code>
    <valueQuantity>
      <value value="54.0"/>
      <units value="%"/>
      <system value="http://unitsofmeasure.org" />
      <code value=""/>
    </valueQuantity>
    
    <appliesDateTime value="2010-06-04"/>
    <status value="final"/>
    <reliability value="ok"/>
    <subject>
      <reference value="Patient/ID8888804"/>
    </subject>
  </Observation>
  
  </resource>
  <transaction>
    <method value="PUT"/>
    <url value="Observation/ID3398-lab"/>
  </transaction>
</entry>
<entry>
  <resource>
    
    
  <Observation>
  <id value="ID3399-lab"/>
    <text>
      <status value="generated"/>
      <div xmlns="http://www.w3.org/1999/xhtml">2010-06-04: Lymphocytes NFr Bld = 36 %</div>
    </text>
    <code>
      <coding>
        <system value="http://loinc.org"/>
        <code value="26478-8"/>
        <display value="Lymphocytes NFr Bld"/>
      </coding>
    </code>
    <valueQuantity>
      <value value="36.0"/>
      <units value="%"/>
      <system value="http://unitsofmeasure.org" />
      <code value=""/>
    </valueQuantity>
    
    <appliesDateTime value="2010-06-04"/>
    <status value="final"/>
    <reliability value="ok"/>
    <subject>
      <reference value="Patient/ID8888804"/>
    </subject>
  </Observation>
  
  </resource>
  <transaction>
    <method value="PUT"/>
    <url value="Observation/ID3399-lab"/>
  </transaction>
</entry>
<entry>
  <resource>
    
    
  <Observation>
  <id value="ID3400-lab"/>
    <text>
      <status value="generated"/>
      <div xmlns="http://www.w3.org/1999/xhtml">2010-06-04: Basophils NFr Bld = 1 %</div>
    </text>
    <code>
      <coding>
        <system value="http://loinc.org"/>
        <code value="30180-4"/>
        <display value="Basophils NFr Bld"/>
      </coding>
    </code>
    <valueQuantity>
      <value value="1.0"/>
      <units value="%"/>
      <system value="http://unitsofmeasure.org" />
      <code value=""/>
    </valueQuantity>
    
    <appliesDateTime value="2010-06-04"/>
    <status value="final"/>
    <reliability value="ok"/>
    <subject>
      <reference value="Patient/ID8888804"/>
    </subject>
  </Observation>
  
  </resource>
  <transaction>
    <method value="PUT"/>
    <url value="Observation/ID3400-lab"/>
  </transaction>
</entry>
<entry>
  <resource>
    
    
  <Observation>
  <id value="ID3401-lab"/>
    <text>
      <status value="generated"/>
      <div xmlns="http://www.w3.org/1999/xhtml">2010-06-04: Eosinophil NFr Bld = 4 %</div>
    </text>
    <code>
      <coding>
        <system value="http://loinc.org"/>
        <code value="26450-7"/>
        <display value="Eosinophil NFr Bld"/>
      </coding>
    </code>
    <valueQuantity>
      <value value="4.0"/>
      <units value="%"/>
      <system value="http://unitsofmeasure.org" />
      <code value=""/>
    </valueQuantity>
    
    <appliesDateTime value="2010-06-04"/>
    <status value="final"/>
    <reliability value="ok"/>
    <subject>
      <reference value="Patient/ID8888804"/>
    </subject>
  </Observation>
  
  </resource>
  <transaction>
    <method value="PUT"/>
    <url value="Observation/ID3401-lab"/>
  </transaction>
</entry>
<entry>
  <resource>
    
    
  <Observation>
  <id value="ID3402-lab"/>
    <text>
      <status value="generated"/>
      <div xmlns="http://www.w3.org/1999/xhtml">2010-06-04: Monocytes NFr Bld = 6 %</div>
    </text>
    <code>
      <coding>
        <system value="http://loinc.org"/>
        <code value="26485-3"/>
        <display value="Monocytes NFr Bld"/>
      </coding>
    </code>
    <valueQuantity>
      <value value="6.0"/>
      <units value="%"/>
      <system value="http://unitsofmeasure.org" />
      <code value=""/>
    </valueQuantity>
    
    <appliesDateTime value="2010-06-04"/>
    <status value="final"/>
    <reliability value="ok"/>
    <subject>
      <reference value="Patient/ID8888804"/>
    </subject>
  </Observation>
  
  </resource>
  <transaction>
    <method value="PUT"/>
    <url value="Observation/ID3402-lab"/>
  </transaction>
</entry>
<entry>
  <resource>
    
    
  <Observation>
  <id value="ID3403-lab"/>
    <text>
      <status value="generated"/>
      <div xmlns="http://www.w3.org/1999/xhtml">2010-06-04: Platelet # Bld = 392 10*3/uL</div>
    </text>
    <code>
      <coding>
        <system value="http://loinc.org"/>
        <code value="26515-7"/>
        <display value="Platelet # Bld"/>
      </coding>
    </code>
    <valueQuantity>
      <value value="392.0"/>
      <units value="10*3/uL"/>
      <system value="http://unitsofmeasure.org" />
      <code value=""/>
    </valueQuantity>
    
    <appliesDateTime value="2010-06-04"/>
    <status value="final"/>
    <reliability value="ok"/>
    <subject>
      <reference value="Patient/ID8888804"/>
    </subject>
  </Observation>
  
  </resource>
  <transaction>
    <method value="PUT"/>
    <url value="Observation/ID3403-lab"/>
  </transaction>
</entry>
<entry>
  <resource>
    
    
  <Observation>
  <id value="ID3404-lab"/>
    <text>
      <status value="generated"/>
      <div xmlns="http://www.w3.org/1999/xhtml">2010-06-04: Glucose SerPl-mCnc = 94 mg/dL</div>
    </text>
    <code>
      <coding>
        <system value="http://loinc.org"/>
        <code value="2345-7"/>
        <display value="Glucose SerPl-mCnc"/>
      </coding>
    </code>
    <valueQuantity>
      <value value="94.0"/>
      <units value="mg/dL"/>
      <system value="http://unitsofmeasure.org" />
      <code value=""/>
    </valueQuantity>
    
    <appliesDateTime value="2010-06-04"/>
    <status value="final"/>
    <reliability value="ok"/>
    <subject>
      <reference value="Patient/ID8888804"/>
    </subject>
  </Observation>
  
  </resource>
  <transaction>
    <method value="PUT"/>
    <url value="Observation/ID3404-lab"/>
  </transaction>
</entry>
<entry>
  <resource>
    
    
  <Observation>
  <id value="ID3405-lab"/>
    <text>
      <status value="generated"/>
      <div xmlns="http://www.w3.org/1999/xhtml">2010-06-04: Calcium SerPl-mCnc = 9.6 mg/dL</div>
    </text>
    <code>
      <coding>
        <system value="http://loinc.org"/>
        <code value="17861-6"/>
        <display value="Calcium SerPl-mCnc"/>
      </coding>
    </code>
    <valueQuantity>
      <value value="9.6"/>
      <units value="mg/dL"/>
      <system value="http://unitsofmeasure.org" />
      <code value=""/>
    </valueQuantity>
    
    <appliesDateTime value="2010-06-04"/>
    <status value="final"/>
    <reliability value="ok"/>
    <subject>
      <reference value="Patient/ID8888804"/>
    </subject>
  </Observation>
  
  </resource>
  <transaction>
    <method value="PUT"/>
    <url value="Observation/ID3405-lab"/>
  </transaction>
</entry>
<entry>
  <resource>
    
    
  <Observation>
  <id value="ID3406-lab"/>
    <text>
      <status value="generated"/>
      <div xmlns="http://www.w3.org/1999/xhtml">2010-06-04: Prot SerPl-mCnc = 6.5 g/dL</div>
    </text>
    <code>
      <coding>
        <system value="http://loinc.org"/>
        <code value="2885-2"/>
        <display value="Prot SerPl-mCnc"/>
      </coding>
    </code>
    <valueQuantity>
      <value value="6.5"/>
      <units value="g/dL"/>
      <system value="http://unitsofmeasure.org" />
      <code value=""/>
    </valueQuantity>
    
    <appliesDateTime value="2010-06-04"/>
    <status value="final"/>
    <reliability value="ok"/>
    <subject>
      <reference value="Patient/ID8888804"/>
    </subject>
  </Observation>
  
  </resource>
  <transaction>
    <method value="PUT"/>
    <url value="Observation/ID3406-lab"/>
  </transaction>
</entry>
<entry>
  <resource>
    
    
  <Observation>
  <id value="ID3407-lab"/>
    <text>
      <status value="generated"/>
      <div xmlns="http://www.w3.org/1999/xhtml">2010-06-04: Albumin SerPl-mCnc = 4.2 g/dL</div>
    </text>
    <code>
      <coding>
        <system value="http://loinc.org"/>
        <code value="1751-7"/>
        <display value="Albumin SerPl-mCnc"/>
      </coding>
    </code>
    <valueQuantity>
      <value value="4.2"/>
      <units value="g/dL"/>
      <system value="http://unitsofmeasure.org" />
      <code value=""/>
    </valueQuantity>
    
    <appliesDateTime value="2010-06-04"/>
    <status value="final"/>
    <reliability value="ok"/>
    <subject>
      <reference value="Patient/ID8888804"/>
    </subject>
  </Observation>
  
  </resource>
  <transaction>
    <method value="PUT"/>
    <url value="Observation/ID3407-lab"/>
  </transaction>
</entry>
<entry>
  <resource>
    
    
  <Observation>
  <id value="ID3408-lab"/>
    <text>
      <status value="generated"/>
      <div xmlns="http://www.w3.org/1999/xhtml">2010-06-04: Sodium SerPl-sCnc = 139 mmol/L</div>
    </text>
    <code>
      <coding>
        <system value="http://loinc.org"/>
        <code value="2951-2"/>
        <display value="Sodium SerPl-sCnc"/>
      </coding>
    </code>
    <valueQuantity>
      <value value="139.0"/>
      <units value="mmol/L"/>
      <system value="http://unitsofmeasure.org" />
      <code value=""/>
    </valueQuantity>
    
    <appliesDateTime value="2010-06-04"/>
    <status value="final"/>
    <reliability value="ok"/>
    <subject>
      <reference value="Patient/ID8888804"/>
    </subject>
  </Observation>
  
  </resource>
  <transaction>
    <method value="PUT"/>
    <url value="Observation/ID3408-lab"/>
  </transaction>
</entry>
<entry>
  <resource>
    
    
  <Observation>
  <id value="ID3409-lab"/>
    <text>
      <status value="generated"/>
      <div xmlns="http://www.w3.org/1999/xhtml">2010-06-04: Potassium SerPl-sCnc = 3.8 mmol/L</div>
    </text>
    <code>
      <coding>
        <system value="http://loinc.org"/>
        <code value="2823-3"/>
        <display value="Potassium SerPl-sCnc"/>
      </coding>
    </code>
    <valueQuantity>
      <value value="3.8"/>
      <units value="mmol/L"/>
      <system value="http://unitsofmeasure.org" />
      <code value=""/>
    </valueQuantity>
    
    <appliesDateTime value="2010-06-04"/>
    <status value="final"/>
    <reliability value="ok"/>
    <subject>
      <reference value="Patient/ID8888804"/>
    </subject>
  </Observation>
  
  </resource>
  <transaction>
    <method value="PUT"/>
    <url value="Observation/ID3409-lab"/>
  </transaction>
</entry>
<entry>
  <resource>
    
    
  <Observation>
  <id value="ID3410-lab"/>
    <text>
      <status value="generated"/>
      <div xmlns="http://www.w3.org/1999/xhtml">2010-06-04: CO2 SerPl-sCnc = 22 mmol/L</div>
    </text>
    <code>
      <coding>
        <system value="http://loinc.org"/>
        <code value="2028-9"/>
        <display value="CO2 SerPl-sCnc"/>
      </coding>
    </code>
    <valueQuantity>
      <value value="22.0"/>
      <units value="mmol/L"/>
      <system value="http://unitsofmeasure.org" />
      <code value=""/>
    </valueQuantity>
    
    <appliesDateTime value="2010-06-04"/>
    <status value="final"/>
    <reliability value="ok"/>
    <subject>
      <reference value="Patient/ID8888804"/>
    </subject>
  </Observation>
  
  </resource>
  <transaction>
    <method value="PUT"/>
    <url value="Observation/ID3410-lab"/>
  </transaction>
</entry>
<entry>
  <resource>
    
    
  <Observation>
  <id value="ID3411-lab"/>
    <text>
      <status value="generated"/>
      <div xmlns="http://www.w3.org/1999/xhtml">2010-06-04: Chloride SerPl-sCnc = 102 mmol/L</div>
    </text>
    <code>
      <coding>
        <system value="http://loinc.org"/>
        <code value="2075-0"/>
        <display value="Chloride SerPl-sCnc"/>
      </coding>
    </code>
    <valueQuantity>
      <value value="102.0"/>
      <units value="mmol/L"/>
      <system value="http://unitsofmeasure.org" />
      <code value=""/>
    </valueQuantity>
    
    <appliesDateTime value="2010-06-04"/>
    <status value="final"/>
    <reliability value="ok"/>
    <subject>
      <reference value="Patient/ID8888804"/>
    </subject>
  </Observation>
  
  </resource>
  <transaction>
    <method value="PUT"/>
    <url value="Observation/ID3411-lab"/>
  </transaction>
</entry>
<entry>
  <resource>
    
    
  <Observation>
  <id value="ID3412-lab"/>
    <text>
      <status value="generated"/>
      <div xmlns="http://www.w3.org/1999/xhtml">2010-06-04: BUN SerPl-mCnc = 18 mg/dL</div>
    </text>
    <code>
      <coding>
        <system value="http://loinc.org"/>
        <code value="3094-0"/>
        <display value="BUN SerPl-mCnc"/>
      </coding>
    </code>
    <valueQuantity>
      <value value="18.0"/>
      <units value="mg/dL"/>
      <system value="http://unitsofmeasure.org" />
      <code value=""/>
    </valueQuantity>
    
    <appliesDateTime value="2010-06-04"/>
    <status value="final"/>
    <reliability value="ok"/>
    <subject>
      <reference value="Patient/ID8888804"/>
    </subject>
  </Observation>
  
  </resource>
  <transaction>
    <method value="PUT"/>
    <url value="Observation/ID3412-lab"/>
  </transaction>
</entry>
<entry>
  <resource>
    
    
  <Observation>
  <id value="ID3413-lab"/>
    <text>
      <status value="generated"/>
      <div xmlns="http://www.w3.org/1999/xhtml">2010-06-04: Creat SerPl-mCnc = 0.84 mg/dL</div>
    </text>
    <code>
      <coding>
        <system value="http://loinc.org"/>
        <code value="2160-0"/>
        <display value="Creat SerPl-mCnc"/>
      </coding>
    </code>
    <valueQuantity>
      <value value="0.84"/>
      <units value="mg/dL"/>
      <system value="http://unitsofmeasure.org" />
      <code value=""/>
    </valueQuantity>
    
    <appliesDateTime value="2010-06-04"/>
    <status value="final"/>
    <reliability value="ok"/>
    <subject>
      <reference value="Patient/ID8888804"/>
    </subject>
  </Observation>
  
  </resource>
  <transaction>
    <method value="PUT"/>
    <url value="Observation/ID3413-lab"/>
  </transaction>
</entry>
<entry>
  <resource>
    
    
  <Observation>
  <id value="ID3414-lab"/>
    <text>
      <status value="generated"/>
      <div xmlns="http://www.w3.org/1999/xhtml">2010-06-04: ALP SerPl-cCnc = 57 U/L</div>
    </text>
    <code>
      <coding>
        <system value="http://loinc.org"/>
        <code value="6768-6"/>
        <display value="ALP SerPl-cCnc"/>
      </coding>
    </code>
    <valueQuantity>
      <value value="57.0"/>
      <units value="U/L"/>
      <system value="http://unitsofmeasure.org" />
      <code value=""/>
    </valueQuantity>
    
    <appliesDateTime value="2010-06-04"/>
    <status value="final"/>
    <reliability value="ok"/>
    <subject>
      <reference value="Patient/ID8888804"/>
    </subject>
  </Observation>
  
  </resource>
  <transaction>
    <method value="PUT"/>
    <url value="Observation/ID3414-lab"/>
  </transaction>
</entry>
<entry>
  <resource>
    
    
  <Observation>
  <id value="ID3415-lab"/>
    <text>
      <status value="generated"/>
      <div xmlns="http://www.w3.org/1999/xhtml">2010-06-04: ALT SerPl-cCnc = 46 U/L</div>
    </text>
    <code>
      <coding>
        <system value="http://loinc.org"/>
        <code value="1742-6"/>
        <display value="ALT SerPl-cCnc"/>
      </coding>
    </code>
    <valueQuantity>
      <value value="46.0"/>
      <units value="U/L"/>
      <system value="http://unitsofmeasure.org" />
      <code value=""/>
    </valueQuantity>
    
    <appliesDateTime value="2010-06-04"/>
    <status value="final"/>
    <reliability value="ok"/>
    <subject>
      <reference value="Patient/ID8888804"/>
    </subject>
  </Observation>
  
  </resource>
  <transaction>
    <method value="PUT"/>
    <url value="Observation/ID3415-lab"/>
  </transaction>
</entry>
<entry>
  <resource>
    
    
  <Observation>
  <id value="ID3416-lab"/>
    <text>
      <status value="generated"/>
      <div xmlns="http://www.w3.org/1999/xhtml">2010-06-04: AST SerPl-cCnc = 35 U/L</div>
    </text>
    <code>
      <coding>
        <system value="http://loinc.org"/>
        <code value="1920-8"/>
        <display value="AST SerPl-cCnc"/>
      </coding>
    </code>
    <valueQuantity>
      <value value="35.0"/>
      <units value="U/L"/>
      <system value="http://unitsofmeasure.org" />
      <code value=""/>
    </valueQuantity>
    
    <appliesDateTime value="2010-06-04"/>
    <status value="final"/>
    <reliability value="ok"/>
    <subject>
      <reference value="Patient/ID8888804"/>
    </subject>
  </Observation>
  
  </resource>
  <transaction>
    <method value="PUT"/>
    <url value="Observation/ID3416-lab"/>
  </transaction>
</entry>
<entry>
  <resource>
    
    
  <Observation>
  <id value="ID3417-lab"/>
    <text>
      <status value="generated"/>
      <div xmlns="http://www.w3.org/1999/xhtml">2010-06-04: Bilirub SerPl-mCnc = 0.4 mg/dL</div>
    </text>
    <code>
      <coding>
        <system value="http://loinc.org"/>
        <code value="1975-2"/>
        <display value="Bilirub SerPl-mCnc"/>
      </coding>
    </code>
    <valueQuantity>
      <value value="0.4"/>
      <units value="mg/dL"/>
      <system value="http://unitsofmeasure.org" />
      <code value=""/>
    </valueQuantity>
    
    <appliesDateTime value="2010-06-04"/>
    <status value="final"/>
    <reliability value="ok"/>
    <subject>
      <reference value="Patient/ID8888804"/>
    </subject>
  </Observation>
  
  </resource>
  <transaction>
    <method value="PUT"/>
    <url value="Observation/ID3417-lab"/>
  </transaction>
</entry>
<entry>
  <resource>
    
    
  <Observation>
  <id value="ID3418-lab"/>
    <text>
      <status value="generated"/>
      <div xmlns="http://www.w3.org/1999/xhtml">2010-06-04: 25(OH)D3 SerPl-mCnc = 40 ng/mL</div>
    </text>
    <code>
      <coding>
        <system value="http://loinc.org"/>
        <code value="1989-3"/>
        <display value="25(OH)D3 SerPl-mCnc"/>
      </coding>
    </code>
    <valueQuantity>
      <value value="40.0"/>
      <units value="ng/mL"/>
      <system value="http://unitsofmeasure.org" />
      <code value=""/>
    </valueQuantity>
    
    <appliesDateTime value="2010-06-04"/>
    <status value="final"/>
    <reliability value="ok"/>
    <subject>
      <reference value="Patient/ID8888804"/>
    </subject>
  </Observation>
  
  </resource>
  <transaction>
    <method value="PUT"/>
    <url value="Observation/ID3418-lab"/>
  </transaction>
</entry>
<entry>
  <resource>
    
    
  <Observation>
  <id value="ID3419-lab"/>
    <text>
      <status value="generated"/>
      <div xmlns="http://www.w3.org/1999/xhtml">2010-06-04: PSA SerPl-mCnc = 1.52 ng/mL</div>
    </text>
    <code>
      <coding>
        <system value="http://loinc.org"/>
        <code value="2857-1"/>
        <display value="PSA SerPl-mCnc"/>
      </coding>
    </code>
    <valueQuantity>
      <value value="1.52"/>
      <units value="ng/mL"/>
      <system value="http://unitsofmeasure.org" />
      <code value=""/>
    </valueQuantity>
    
    <appliesDateTime value="2010-06-04"/>
    <status value="final"/>
    <reliability value="ok"/>
    <subject>
      <reference value="Patient/ID8888804"/>
    </subject>
  </Observation>
  
  </resource>
  <transaction>
    <method value="PUT"/>
    <url value="Observation/ID3419-lab"/>
  </transaction>
</entry>
<entry>
  <resource>
    
    
  <Observation>
  <id value="ID3420-lab"/>
    <text>
      <status value="generated"/>
      <div xmlns="http://www.w3.org/1999/xhtml">2010-06-04: Appearance Ur = clear, gold </div>
    </text>
    <code>
      <coding>
        <system value="http://loinc.org"/>
        <code value="5767-9"/>
        <display value="Appearance Ur"/>
      </coding>
    </code>
    <valueString value="clear, gold"/>
    
    <appliesDateTime value="2010-06-04"/>
    <status value="final"/>
    <reliability value="ok"/>
    <subject>
      <reference value="Patient/ID8888804"/>
    </subject>
  </Observation>
  
  </resource>
  <transaction>
    <method value="PUT"/>
    <url value="Observation/ID3420-lab"/>
  </transaction>
</entry>
<entry>
  <resource>
    
    
  <Observation>
  <id value="ID3421-lab"/>
    <extension url="http://fhir-registry.smarthealthit.org/StructureDefinition/labs#value-range" >
        <valueString value='[&#39;Negative&#39;, &#39;Positive&#39;]'/>
    </extension>
    
    <text>
      <status value="generated"/>
      <div xmlns="http://www.w3.org/1999/xhtml">2010-06-04: Bilirub Ur Ql Strip = Negative </div>
    </text>
    <code>
      <coding>
        <system value="http://loinc.org"/>
        <code value="5770-3"/>
        <display value="Bilirub Ur Ql Strip"/>
      </coding>
    </code>
    <valueString value="Negative"/>
    
    <appliesDateTime value="2010-06-04"/>
    <status value="final"/>
    <reliability value="ok"/>
    <subject>
      <reference value="Patient/ID8888804"/>
    </subject>
  </Observation>
  
  </resource>
  <transaction>
    <method value="PUT"/>
    <url value="Observation/ID3421-lab"/>
  </transaction>
</entry>
<entry>
  <resource>
    
    
  <Observation>
  <id value="ID3422-lab"/>
    <text>
      <status value="generated"/>
      <div xmlns="http://www.w3.org/1999/xhtml">2010-06-04: Glucose Ur Strip-mCnc = 0 mg/dL</div>
    </text>
    <code>
      <coding>
        <system value="http://loinc.org"/>
        <code value="5792-7"/>
        <display value="Glucose Ur Strip-mCnc"/>
      </coding>
    </code>
    <valueQuantity>
      <value value="0.0"/>
      <units value="mg/dL"/>
      <system value="http://unitsofmeasure.org" />
      <code value=""/>
    </valueQuantity>
    
    <appliesDateTime value="2010-06-04"/>
    <status value="final"/>
    <reliability value="ok"/>
    <subject>
      <reference value="Patient/ID8888804"/>
    </subject>
  </Observation>
  
  </resource>
  <transaction>
    <method value="PUT"/>
    <url value="Observation/ID3422-lab"/>
  </transaction>
</entry>
<entry>
  <resource>
    
    
  <Observation>
  <id value="ID3423-lab"/>
    <extension url="http://fhir-registry.smarthealthit.org/StructureDefinition/labs#value-range" >
        <valueString value='[&#39;Negative&#39;, &#39;Positive&#39;]'/>
    </extension>
    
    <text>
      <status value="generated"/>
      <div xmlns="http://www.w3.org/1999/xhtml">2010-06-04: Ketones Ur Ql = Negative </div>
    </text>
    <code>
      <coding>
        <system value="http://loinc.org"/>
        <code value="33903-6"/>
        <display value="Ketones Ur Ql"/>
      </coding>
    </code>
    <valueString value="Negative"/>
    
    <appliesDateTime value="2010-06-04"/>
    <status value="final"/>
    <reliability value="ok"/>
    <subject>
      <reference value="Patient/ID8888804"/>
    </subject>
  </Observation>
  
  </resource>
  <transaction>
    <method value="PUT"/>
    <url value="Observation/ID3423-lab"/>
  </transaction>
</entry>
<entry>
  <resource>
    
    
  <Observation>
  <id value="ID3424-lab"/>
    <extension url="http://fhir-registry.smarthealthit.org/StructureDefinition/labs#value-range" >
        <valueString value='[&#39;Negative&#39;, &#39;Positive&#39;]'/>
    </extension>
    
    <text>
      <status value="generated"/>
      <div xmlns="http://www.w3.org/1999/xhtml">2010-06-04: Leukocyte esterase Ur Ql Strip = Negative </div>
    </text>
    <code>
      <coding>
        <system value="http://loinc.org"/>
        <code value="5799-2"/>
        <display value="Leukocyte esterase Ur Ql Strip"/>
      </coding>
    </code>
    <valueString value="Negative"/>
    
    <appliesDateTime value="2010-06-04"/>
    <status value="final"/>
    <reliability value="ok"/>
    <subject>
      <reference value="Patient/ID8888804"/>
    </subject>
  </Observation>
  
  </resource>
  <transaction>
    <method value="PUT"/>
    <url value="Observation/ID3424-lab"/>
  </transaction>
</entry>
<entry>
  <resource>
    
    
  <Observation>
  <id value="ID3425-lab"/>
    <text>
      <status value="generated"/>
      <div xmlns="http://www.w3.org/1999/xhtml">2010-06-04: Microalbumin Ur-mCnc = 0.75 mg/dL</div>
    </text>
    <code>
      <coding>
        <system value="http://loinc.org"/>
        <code value="14957-5"/>
        <display value="Microalbumin Ur-mCnc"/>
      </coding>
    </code>
    <valueQuantity>
      <value value="0.75"/>
      <units value="mg/dL"/>
      <system value="http://unitsofmeasure.org" />
      <code value=""/>
    </valueQuantity>
    
    <appliesDateTime value="2010-06-04"/>
    <status value="final"/>
    <reliability value="ok"/>
    <subject>
      <reference value="Patient/ID8888804"/>
    </subject>
  </Observation>
  
  </resource>
  <transaction>
    <method value="PUT"/>
    <url value="Observation/ID3425-lab"/>
  </transaction>
</entry>
<entry>
  <resource>
    
    
  <Observation>
  <id value="ID3426-lab"/>
    <extension url="http://fhir-registry.smarthealthit.org/StructureDefinition/labs#value-range" >
        <valueString value='[&#39;Negative&#39;, &#39;Positive&#39;]'/>
    </extension>
    
    <text>
      <status value="generated"/>
      <div xmlns="http://www.w3.org/1999/xhtml">2010-06-04: Nitrite Ur Ql Strip = Negative </div>
    </text>
    <code>
      <coding>
        <system value="http://loinc.org"/>
        <code value="5802-4"/>
        <display value="Nitrite Ur Ql Strip"/>
      </coding>
    </code>
    <valueString value="Negative"/>
    
    <appliesDateTime value="2010-06-04"/>
    <status value="final"/>
    <reliability value="ok"/>
    <subject>
      <reference value="Patient/ID8888804"/>
    </subject>
  </Observation>
  
  </resource>
  <transaction>
    <method value="PUT"/>
    <url value="Observation/ID3426-lab"/>
  </transaction>
</entry>
<entry>
  <resource>
    
    
  <Observation>
  <id value="ID3427-lab"/>
    <extension url="http://fhir-registry.smarthealthit.org/StructureDefinition/labs#value-range" >
        <valueString value='[&#39;Negative&#39;, &#39;Positive&#39;]'/>
    </extension>
    
    <text>
      <status value="generated"/>
      <div xmlns="http://www.w3.org/1999/xhtml">2010-06-04: Hgb Ur Ql Strip = Negative </div>
    </text>
    <code>
      <coding>
        <system value="http://loinc.org"/>
        <code value="5794-3"/>
        <display value="Hgb Ur Ql Strip"/>
      </coding>
    </code>
    <valueString value="Negative"/>
    
    <appliesDateTime value="2010-06-04"/>
    <status value="final"/>
    <reliability value="ok"/>
    <subject>
      <reference value="Patient/ID8888804"/>
    </subject>
  </Observation>
  
  </resource>
  <transaction>
    <method value="PUT"/>
    <url value="Observation/ID3427-lab"/>
  </transaction>
</entry>
<entry>
  <resource>
    
    
  <Observation>
  <id value="ID3428-lab"/>
    <text>
      <status value="generated"/>
      <div xmlns="http://www.w3.org/1999/xhtml">2010-06-04: pH Ur Strip = 6 [pH]</div>
    </text>
    <code>
      <coding>
        <system value="http://loinc.org"/>
        <code value="5803-2"/>
        <display value="pH Ur Strip"/>
      </coding>
    </code>
    <valueQuantity>
      <value value="6.0"/>
      <units value="[pH]"/>
      <system value="http://unitsofmeasure.org" />
      <code value=""/>
    </valueQuantity>
    
    <appliesDateTime value="2010-06-04"/>
    <status value="final"/>
    <reliability value="ok"/>
    <subject>
      <reference value="Patient/ID8888804"/>
    </subject>
  </Observation>
  
  </resource>
  <transaction>
    <method value="PUT"/>
    <url value="Observation/ID3428-lab"/>
  </transaction>
</entry>
<entry>
  <resource>
    
    
  <Observation>
  <id value="ID3429-lab"/>
    <text>
      <status value="generated"/>
      <div xmlns="http://www.w3.org/1999/xhtml">2010-06-04: Prot Ur Strip-mCnc = 0 mg/dL</div>
    </text>
    <code>
      <coding>
        <system value="http://loinc.org"/>
        <code value="5804-0"/>
        <display value="Prot Ur Strip-mCnc"/>
      </coding>
    </code>
    <valueQuantity>
      <value value="0.0"/>
      <units value="mg/dL"/>
      <system value="http://unitsofmeasure.org" />
      <code value=""/>
    </valueQuantity>
    
    <appliesDateTime value="2010-06-04"/>
    <status value="final"/>
    <reliability value="ok"/>
    <subject>
      <reference value="Patient/ID8888804"/>
    </subject>
  </Observation>
  
  </resource>
  <transaction>
    <method value="PUT"/>
    <url value="Observation/ID3429-lab"/>
  </transaction>
</entry>
<entry>
  <resource>
    
    
  <Observation>
  <id value="ID3430-lab"/>
    <text>
      <status value="generated"/>
      <div xmlns="http://www.w3.org/1999/xhtml">2010-06-04: Sp Gr Ur Strip = 1.25 </div>
    </text>
    <code>
      <coding>
        <system value="http://loinc.org"/>
        <code value="5811-5"/>
        <display value="Sp Gr Ur Strip"/>
      </coding>
    </code>
    <valueQuantity>
      <value value="1.25"/>
      <units value=""/>
      <system value="http://unitsofmeasure.org" />
      <code value=""/>
    </valueQuantity>
    
    <appliesDateTime value="2010-06-04"/>
    <status value="final"/>
    <reliability value="ok"/>
    <subject>
      <reference value="Patient/ID8888804"/>
    </subject>
  </Observation>
  
  </resource>
  <transaction>
    <method value="PUT"/>
    <url value="Observation/ID3430-lab"/>
  </transaction>
</entry>
<entry>
  <resource>
    
    
  <Observation>
  <id value="ID3431-lab"/>
    <text>
      <status value="generated"/>
      <div xmlns="http://www.w3.org/1999/xhtml">2012-11-09: Glucose SerPl-mCnc = 115 mg/dL</div>
    </text>
    <code>
      <coding>
        <system value="http://loinc.org"/>
        <code value="2345-7"/>
        <display value="Glucose SerPl-mCnc"/>
      </coding>
    </code>
    <valueQuantity>
      <value value="115.0"/>
      <units value="mg/dL"/>
      <system value="http://unitsofmeasure.org" />
      <code value=""/>
    </valueQuantity>
    
    <appliesDateTime value="2012-11-09"/>
    <status value="final"/>
    <reliability value="ok"/>
    <subject>
      <reference value="Patient/ID8888804"/>
    </subject>
  </Observation>
  
  </resource>
  <transaction>
    <method value="PUT"/>
    <url value="Observation/ID3431-lab"/>
  </transaction>
</entry>
<entry>
  <resource>
    
    
  <Observation>
  <id value="ID3432-lab"/>
    <text>
      <status value="generated"/>
      <div xmlns="http://www.w3.org/1999/xhtml">2012-11-09: Hgb A1c MFr Bld = 6.3 %</div>
    </text>
    <code>
      <coding>
        <system value="http://loinc.org"/>
        <code value="4548-4"/>
        <display value="Hgb A1c MFr Bld"/>
      </coding>
    </code>
    <valueQuantity>
      <value value="6.3"/>
      <units value="%"/>
      <system value="http://unitsofmeasure.org" />
      <code value=""/>
    </valueQuantity>
    
    <appliesDateTime value="2012-11-09"/>
    <status value="final"/>
    <reliability value="ok"/>
    <subject>
      <reference value="Patient/ID8888804"/>
    </subject>
  </Observation>
  
  </resource>
  <transaction>
    <method value="PUT"/>
    <url value="Observation/ID3432-lab"/>
  </transaction>
</entry>
<entry>
  <resource>
    
    
  <Observation>
  <id value="ID3433-lab"/>
    <text>
      <status value="generated"/>
      <div xmlns="http://www.w3.org/1999/xhtml">2012-11-09: Calcium SerPl-mCnc = 9 mg/dL</div>
    </text>
    <code>
      <coding>
        <system value="http://loinc.org"/>
        <code value="17861-6"/>
        <display value="Calcium SerPl-mCnc"/>
      </coding>
    </code>
    <valueQuantity>
      <value value="9.0"/>
      <units value="mg/dL"/>
      <system value="http://unitsofmeasure.org" />
      <code value=""/>
    </valueQuantity>
    
    <appliesDateTime value="2012-11-09"/>
    <status value="final"/>
    <reliability value="ok"/>
    <subject>
      <reference value="Patient/ID8888804"/>
    </subject>
  </Observation>
  
  </resource>
  <transaction>
    <method value="PUT"/>
    <url value="Observation/ID3433-lab"/>
  </transaction>
</entry>
<entry>
  <resource>
    
    
  <Observation>
  <id value="ID3434-lab"/>
    <text>
      <status value="generated"/>
      <div xmlns="http://www.w3.org/1999/xhtml">2012-11-09: Prot SerPl-mCnc = 7 g/dL</div>
    </text>
    <code>
      <coding>
        <system value="http://loinc.org"/>
        <code value="2885-2"/>
        <display value="Prot SerPl-mCnc"/>
      </coding>
    </code>
    <valueQuantity>
      <value value="7.0"/>
      <units value="g/dL"/>
      <system value="http://unitsofmeasure.org" />
      <code value=""/>
    </valueQuantity>
    
    <appliesDateTime value="2012-11-09"/>
    <status value="final"/>
    <reliability value="ok"/>
    <subject>
      <reference value="Patient/ID8888804"/>
    </subject>
  </Observation>
  
  </resource>
  <transaction>
    <method value="PUT"/>
    <url value="Observation/ID3434-lab"/>
  </transaction>
</entry>
<entry>
  <resource>
    
    
  <Observation>
  <id value="ID3435-lab"/>
    <text>
      <status value="generated"/>
      <div xmlns="http://www.w3.org/1999/xhtml">2012-11-09: Albumin SerPl-mCnc = 4.3 g/dL</div>
    </text>
    <code>
      <coding>
        <system value="http://loinc.org"/>
        <code value="1751-7"/>
        <display value="Albumin SerPl-mCnc"/>
      </coding>
    </code>
    <valueQuantity>
      <value value="4.3"/>
      <units value="g/dL"/>
      <system value="http://unitsofmeasure.org" />
      <code value=""/>
    </valueQuantity>
    
    <appliesDateTime value="2012-11-09"/>
    <status value="final"/>
    <reliability value="ok"/>
    <subject>
      <reference value="Patient/ID8888804"/>
    </subject>
  </Observation>
  
  </resource>
  <transaction>
    <method value="PUT"/>
    <url value="Observation/ID3435-lab"/>
  </transaction>
</entry>
<entry>
  <resource>
    
    
  <Observation>
  <id value="ID3436-lab"/>
    <text>
      <status value="generated"/>
      <div xmlns="http://www.w3.org/1999/xhtml">2012-11-09: Sodium SerPl-sCnc = 139 mmol/L</div>
    </text>
    <code>
      <coding>
        <system value="http://loinc.org"/>
        <code value="2951-2"/>
        <display value="Sodium SerPl-sCnc"/>
      </coding>
    </code>
    <valueQuantity>
      <value value="139.0"/>
      <units value="mmol/L"/>
      <system value="http://unitsofmeasure.org" />
      <code value=""/>
    </valueQuantity>
    
    <appliesDateTime value="2012-11-09"/>
    <status value="final"/>
    <reliability value="ok"/>
    <subject>
      <reference value="Patient/ID8888804"/>
    </subject>
  </Observation>
  
  </resource>
  <transaction>
    <method value="PUT"/>
    <url value="Observation/ID3436-lab"/>
  </transaction>
</entry>
<entry>
  <resource>
    
    
  <Observation>
  <id value="ID3437-lab"/>
    <text>
      <status value="generated"/>
      <div xmlns="http://www.w3.org/1999/xhtml">2012-11-09: Potassium SerPl-sCnc = 3.9 mmol/L</div>
    </text>
    <code>
      <coding>
        <system value="http://loinc.org"/>
        <code value="2823-3"/>
        <display value="Potassium SerPl-sCnc"/>
      </coding>
    </code>
    <valueQuantity>
      <value value="3.9"/>
      <units value="mmol/L"/>
      <system value="http://unitsofmeasure.org" />
      <code value=""/>
    </valueQuantity>
    
    <appliesDateTime value="2012-11-09"/>
    <status value="final"/>
    <reliability value="ok"/>
    <subject>
      <reference value="Patient/ID8888804"/>
    </subject>
  </Observation>
  
  </resource>
  <transaction>
    <method value="PUT"/>
    <url value="Observation/ID3437-lab"/>
  </transaction>
</entry>
<entry>
  <resource>
    
    
  <Observation>
  <id value="ID3438-lab"/>
    <text>
      <status value="generated"/>
      <div xmlns="http://www.w3.org/1999/xhtml">2012-11-09: CO2 SerPl-sCnc = 21 mmol/L</div>
    </text>
    <code>
      <coding>
        <system value="http://loinc.org"/>
        <code value="2028-9"/>
        <display value="CO2 SerPl-sCnc"/>
      </coding>
    </code>
    <valueQuantity>
      <value value="21.0"/>
      <units value="mmol/L"/>
      <system value="http://unitsofmeasure.org" />
      <code value=""/>
    </valueQuantity>
    
    <appliesDateTime value="2012-11-09"/>
    <status value="final"/>
    <reliability value="ok"/>
    <subject>
      <reference value="Patient/ID8888804"/>
    </subject>
  </Observation>
  
  </resource>
  <transaction>
    <method value="PUT"/>
    <url value="Observation/ID3438-lab"/>
  </transaction>
</entry>
<entry>
  <resource>
    
    
  <Observation>
  <id value="ID3439-lab"/>
    <text>
      <status value="generated"/>
      <div xmlns="http://www.w3.org/1999/xhtml">2012-11-09: Chloride SerPl-sCnc = 102 mmol/L</div>
    </text>
    <code>
      <coding>
        <system value="http://loinc.org"/>
        <code value="2075-0"/>
        <display value="Chloride SerPl-sCnc"/>
      </coding>
    </code>
    <valueQuantity>
      <value value="102.0"/>
      <units value="mmol/L"/>
      <system value="http://unitsofmeasure.org" />
      <code value=""/>
    </valueQuantity>
    
    <appliesDateTime value="2012-11-09"/>
    <status value="final"/>
    <reliability value="ok"/>
    <subject>
      <reference value="Patient/ID8888804"/>
    </subject>
  </Observation>
  
  </resource>
  <transaction>
    <method value="PUT"/>
    <url value="Observation/ID3439-lab"/>
  </transaction>
</entry>
<entry>
  <resource>
    
    
  <Observation>
  <id value="ID3440-lab"/>
    <text>
      <status value="generated"/>
      <div xmlns="http://www.w3.org/1999/xhtml">2012-11-09: BUN SerPl-mCnc = 15 mg/dL</div>
    </text>
    <code>
      <coding>
        <system value="http://loinc.org"/>
        <code value="3094-0"/>
        <display value="BUN SerPl-mCnc"/>
      </coding>
    </code>
    <valueQuantity>
      <value value="15.0"/>
      <units value="mg/dL"/>
      <system value="http://unitsofmeasure.org" />
      <code value=""/>
    </valueQuantity>
    
    <appliesDateTime value="2012-11-09"/>
    <status value="final"/>
    <reliability value="ok"/>
    <subject>
      <reference value="Patient/ID8888804"/>
    </subject>
  </Observation>
  
  </resource>
  <transaction>
    <method value="PUT"/>
    <url value="Observation/ID3440-lab"/>
  </transaction>
</entry>
<entry>
  <resource>
    
    
  <Observation>
  <id value="ID3441-lab"/>
    <text>
      <status value="generated"/>
      <div xmlns="http://www.w3.org/1999/xhtml">2012-11-09: Creat SerPl-mCnc = 0.91 mg/dL</div>
    </text>
    <code>
      <coding>
        <system value="http://loinc.org"/>
        <code value="2160-0"/>
        <display value="Creat SerPl-mCnc"/>
      </coding>
    </code>
    <valueQuantity>
      <value value="0.91"/>
      <units value="mg/dL"/>
      <system value="http://unitsofmeasure.org" />
      <code value=""/>
    </valueQuantity>
    
    <appliesDateTime value="2012-11-09"/>
    <status value="final"/>
    <reliability value="ok"/>
    <subject>
      <reference value="Patient/ID8888804"/>
    </subject>
  </Observation>
  
  </resource>
  <transaction>
    <method value="PUT"/>
    <url value="Observation/ID3441-lab"/>
  </transaction>
</entry>
<entry>
  <resource>
    
    
  <Observation>
  <id value="ID3442-lab"/>
    <text>
      <status value="generated"/>
      <div xmlns="http://www.w3.org/1999/xhtml">2012-11-09: ALP SerPl-cCnc = 70 U/L</div>
    </text>
    <code>
      <coding>
        <system value="http://loinc.org"/>
        <code value="6768-6"/>
        <display value="ALP SerPl-cCnc"/>
      </coding>
    </code>
    <valueQuantity>
      <value value="70.0"/>
      <units value="U/L"/>
      <system value="http://unitsofmeasure.org" />
      <code value=""/>
    </valueQuantity>
    
    <appliesDateTime value="2012-11-09"/>
    <status value="final"/>
    <reliability value="ok"/>
    <subject>
      <reference value="Patient/ID8888804"/>
    </subject>
  </Observation>
  
  </resource>
  <transaction>
    <method value="PUT"/>
    <url value="Observation/ID3442-lab"/>
  </transaction>
</entry>
<entry>
  <resource>
    
    
  <Observation>
  <id value="ID3443-lab"/>
    <text>
      <status value="generated"/>
      <div xmlns="http://www.w3.org/1999/xhtml">2012-11-09: ALT SerPl-cCnc = 29 U/L</div>
    </text>
    <code>
      <coding>
        <system value="http://loinc.org"/>
        <code value="1742-6"/>
        <display value="ALT SerPl-cCnc"/>
      </coding>
    </code>
    <valueQuantity>
      <value value="29.0"/>
      <units value="U/L"/>
      <system value="http://unitsofmeasure.org" />
      <code value=""/>
    </valueQuantity>
    
    <appliesDateTime value="2012-11-09"/>
    <status value="final"/>
    <reliability value="ok"/>
    <subject>
      <reference value="Patient/ID8888804"/>
    </subject>
  </Observation>
  
  </resource>
  <transaction>
    <method value="PUT"/>
    <url value="Observation/ID3443-lab"/>
  </transaction>
</entry>
<entry>
  <resource>
    
    
  <Observation>
  <id value="ID3444-lab"/>
    <text>
      <status value="generated"/>
      <div xmlns="http://www.w3.org/1999/xhtml">2012-11-09: AST SerPl-cCnc = 22 U/L</div>
    </text>
    <code>
      <coding>
        <system value="http://loinc.org"/>
        <code value="1920-8"/>
        <display value="AST SerPl-cCnc"/>
      </coding>
    </code>
    <valueQuantity>
      <value value="22.0"/>
      <units value="U/L"/>
      <system value="http://unitsofmeasure.org" />
      <code value=""/>
    </valueQuantity>
    
    <appliesDateTime value="2012-11-09"/>
    <status value="final"/>
    <reliability value="ok"/>
    <subject>
      <reference value="Patient/ID8888804"/>
    </subject>
  </Observation>
  
  </resource>
  <transaction>
    <method value="PUT"/>
    <url value="Observation/ID3444-lab"/>
  </transaction>
</entry>
<entry>
  <resource>
    
    
  <Observation>
  <id value="ID3445-lab"/>
    <text>
      <status value="generated"/>
      <div xmlns="http://www.w3.org/1999/xhtml">2012-11-09: Bilirub SerPl-mCnc = 0.3 mg/dL</div>
    </text>
    <code>
      <coding>
        <system value="http://loinc.org"/>
        <code value="1975-2"/>
        <display value="Bilirub SerPl-mCnc"/>
      </coding>
    </code>
    <valueQuantity>
      <value value="0.3"/>
      <units value="mg/dL"/>
      <system value="http://unitsofmeasure.org" />
      <code value=""/>
    </valueQuantity>
    
    <appliesDateTime value="2012-11-09"/>
    <status value="final"/>
    <reliability value="ok"/>
    <subject>
      <reference value="Patient/ID8888804"/>
    </subject>
  </Observation>
  
  </resource>
  <transaction>
    <method value="PUT"/>
    <url value="Observation/ID3445-lab"/>
  </transaction>
</entry>
<entry>
  <resource>
    
    
  <Observation>
  <id value="ID3446-lab"/>
    <text>
      <status value="generated"/>
      <div xmlns="http://www.w3.org/1999/xhtml">2012-11-09: Urate SerPl-mCnc = 5.2 mg/dL</div>
    </text>
    <code>
      <coding>
        <system value="http://loinc.org"/>
        <code value="3084-1"/>
        <display value="Urate SerPl-mCnc"/>
      </coding>
    </code>
    <valueQuantity>
      <value value="5.2"/>
      <units value="mg/dL"/>
      <system value="http://unitsofmeasure.org" />
      <code value=""/>
    </valueQuantity>
    
    <appliesDateTime value="2012-11-09"/>
    <status value="final"/>
    <reliability value="ok"/>
    <subject>
      <reference value="Patient/ID8888804"/>
    </subject>
  </Observation>
  
  </resource>
  <transaction>
    <method value="PUT"/>
    <url value="Observation/ID3446-lab"/>
  </transaction>
</entry>
<entry>
  <resource>
    
    
  <Observation>
  <id value="ID3447-lab"/>
    <text>
      <status value="generated"/>
      <div xmlns="http://www.w3.org/1999/xhtml">2012-11-09: Cholest SerPl-mCnc = 162 mg/dL</div>
    </text>
    <code>
      <coding>
        <system value="http://loinc.org"/>
        <code value="2093-3"/>
        <display value="Cholest SerPl-mCnc"/>
      </coding>
    </code>
    <valueQuantity>
      <value value="162.0"/>
      <units value="mg/dL"/>
      <system value="http://unitsofmeasure.org" />
      <code value=""/>
    </valueQuantity>
    
    <appliesDateTime value="2012-11-09"/>
    <status value="final"/>
    <reliability value="ok"/>
    <subject>
      <reference value="Patient/ID8888804"/>
    </subject>
  </Observation>
  
  </resource>
  <transaction>
    <method value="PUT"/>
    <url value="Observation/ID3447-lab"/>
  </transaction>
</entry>
<entry>
  <resource>
    
    
  <Observation>
  <id value="ID3448-lab"/>
    <text>
      <status value="generated"/>
      <div xmlns="http://www.w3.org/1999/xhtml">2012-11-09: HDLc SerPl-mCnc = 46 mg/dL</div>
    </text>
    <code>
      <coding>
        <system value="http://loinc.org"/>
        <code value="2085-9"/>
        <display value="HDLc SerPl-mCnc"/>
      </coding>
    </code>
    <valueQuantity>
      <value value="46.0"/>
      <units value="mg/dL"/>
      <system value="http://unitsofmeasure.org" />
      <code value=""/>
    </valueQuantity>
    
    <appliesDateTime value="2012-11-09"/>
    <status value="final"/>
    <reliability value="ok"/>
    <subject>
      <reference value="Patient/ID8888804"/>
    </subject>
  </Observation>
  
  </resource>
  <transaction>
    <method value="PUT"/>
    <url value="Observation/ID3448-lab"/>
  </transaction>
</entry>
<entry>
  <resource>
    
    
  <Observation>
  <id value="ID3449-lab"/>
    <text>
      <status value="generated"/>
      <div xmlns="http://www.w3.org/1999/xhtml">2012-11-09: LDLc SerPl Direct Assay-mCnc = 77 mg/dL</div>
    </text>
    <code>
      <coding>
        <system value="http://loinc.org"/>
        <code value="18262-6"/>
        <display value="LDLc SerPl Direct Assay-mCnc"/>
      </coding>
    </code>
    <valueQuantity>
      <value value="77.0"/>
      <units value="mg/dL"/>
      <system value="http://unitsofmeasure.org" />
      <code value=""/>
    </valueQuantity>
    
    <appliesDateTime value="2012-11-09"/>
    <status value="final"/>
    <reliability value="ok"/>
    <subject>
      <reference value="Patient/ID8888804"/>
    </subject>
  </Observation>
  
  </resource>
  <transaction>
    <method value="PUT"/>
    <url value="Observation/ID3449-lab"/>
  </transaction>
</entry>
<entry>
  <resource>
    
    
  <Observation>
  <id value="ID3450-lab"/>
    <text>
      <status value="generated"/>
      <div xmlns="http://www.w3.org/1999/xhtml">2012-11-09: Trigl SerPl-mCnc = 54 mg/dL</div>
    </text>
    <code>
      <coding>
        <system value="http://loinc.org"/>
        <code value="2571-8"/>
        <display value="Trigl SerPl-mCnc"/>
      </coding>
    </code>
    <valueQuantity>
      <value value="54.0"/>
      <units value="mg/dL"/>
      <system value="http://unitsofmeasure.org" />
      <code value=""/>
    </valueQuantity>
    
    <appliesDateTime value="2012-11-09"/>
    <status value="final"/>
    <reliability value="ok"/>
    <subject>
      <reference value="Patient/ID8888804"/>
    </subject>
  </Observation>
  
  </resource>
  <transaction>
    <method value="PUT"/>
    <url value="Observation/ID3450-lab"/>
  </transaction>
</entry>
<entry>
  <resource>
    
    
  <Observation>
  <id value="ID3451-lab"/>
    <text>
      <status value="generated"/>
      <div xmlns="http://www.w3.org/1999/xhtml">2012-11-09: LDL SerPl-sCnc = 1205 nmol/L</div>
    </text>
    <code>
      <coding>
        <system value="http://loinc.org"/>
        <code value="54434-6"/>
        <display value="LDL SerPl-sCnc"/>
      </coding>
    </code>
    <valueQuantity>
      <value value="1205.0"/>
      <units value="nmol/L"/>
      <system value="http://unitsofmeasure.org" />
      <code value=""/>
    </valueQuantity>
    
    <appliesDateTime value="2012-11-09"/>
    <status value="final"/>
    <reliability value="ok"/>
    <subject>
      <reference value="Patient/ID8888804"/>
    </subject>
  </Observation>
  
  </resource>
  <transaction>
    <method value="PUT"/>
    <url value="Observation/ID3451-lab"/>
  </transaction>
</entry>
<entry>
  <resource>
    
    
  <Observation>
  <id value="ID3452-lab"/>
    <text>
      <status value="generated"/>
      <div xmlns="http://www.w3.org/1999/xhtml">2012-11-09: LDL Small SerPl-sCnc = 102 nmol/L</div>
    </text>
    <code>
      <coding>
        <system value="http://loinc.org"/>
        <code value="43727-7"/>
        <display value="LDL Small SerPl-sCnc"/>
      </coding>
    </code>
    <valueQuantity>
      <value value="102.0"/>
      <units value="nmol/L"/>
      <system value="http://unitsofmeasure.org" />
      <code value=""/>
    </valueQuantity>
    
    <appliesDateTime value="2012-11-09"/>
    <status value="final"/>
    <reliability value="ok"/>
    <subject>
      <reference value="Patient/ID8888804"/>
    </subject>
  </Observation>
  
  </resource>
  <transaction>
    <method value="PUT"/>
    <url value="Observation/ID3452-lab"/>
  </transaction>
</entry>
<entry>
  <resource>
    
    
  <Observation>
  <id value="ID3453-lab"/>
    <text>
      <status value="generated"/>
      <div xmlns="http://www.w3.org/1999/xhtml">2012-11-09: HLD.large SerPl-sCnc = 34.7 umol/L</div>
    </text>
    <code>
      <coding>
        <system value="http://loinc.org"/>
        <code value="43729-3"/>
        <display value="HLD.large SerPl-sCnc"/>
      </coding>
    </code>
    <valueQuantity>
      <value value="34.7"/>
      <units value="umol/L"/>
      <system value="http://unitsofmeasure.org" />
      <code value=""/>
    </valueQuantity>
    
    <appliesDateTime value="2012-11-09"/>
    <status value="final"/>
    <reliability value="ok"/>
    <subject>
      <reference value="Patient/ID8888804"/>
    </subject>
  </Observation>
  
  </resource>
  <transaction>
    <method value="PUT"/>
    <url value="Observation/ID3453-lab"/>
  </transaction>
</entry>
<entry>
  <resource>
    
    
  <Observation>
  <id value="ID3454-lab"/>
    <text>
      <status value="generated"/>
      <div xmlns="http://www.w3.org/1999/xhtml">2012-11-09: LP-IR score SerPl-aCnc = 78 </div>
    </text>
    <code>
      <coding>
        <system value="http://loinc.org"/>
        <code value="62255-5"/>
        <display value="LP-IR score SerPl-aCnc"/>
      </coding>
    </code>
    <valueQuantity>
      <value value="78.0"/>
      <units value=""/>
      <system value="http://unitsofmeasure.org" />
      <code value=""/>
    </valueQuantity>
    
    <appliesDateTime value="2012-11-09"/>
    <status value="final"/>
    <reliability value="ok"/>
    <subject>
      <reference value="Patient/ID8888804"/>
    </subject>
  </Observation>
  
  </resource>
  <transaction>
    <method value="PUT"/>
    <url value="Observation/ID3454-lab"/>
  </transaction>
</entry>
<entry>
  <resource>
    
    
  <Observation>
  <id value="ID3455-lab"/>
    <text>
      <status value="generated"/>
      <div xmlns="http://www.w3.org/1999/xhtml">2012-11-09: Appearance Ur = clear, yellow </div>
    </text>
    <code>
      <coding>
        <system value="http://loinc.org"/>
        <code value="5767-9"/>
        <display value="Appearance Ur"/>
      </coding>
    </code>
    <valueString value="clear, yellow"/>
    
    <appliesDateTime value="2012-11-09"/>
    <status value="final"/>
    <reliability value="ok"/>
    <subject>
      <reference value="Patient/ID8888804"/>
    </subject>
  </Observation>
  
  </resource>
  <transaction>
    <method value="PUT"/>
    <url value="Observation/ID3455-lab"/>
  </transaction>
</entry>
<entry>
  <resource>
    
    
  <Observation>
  <id value="ID3456-lab"/>
    <extension url="http://fhir-registry.smarthealthit.org/StructureDefinition/labs#value-range" >
        <valueString value='[&#39;Negative&#39;, &#39;Positive&#39;]'/>
    </extension>
    
    <text>
      <status value="generated"/>
      <div xmlns="http://www.w3.org/1999/xhtml">2012-11-09: Bilirub Ur Ql Strip = Negative </div>
    </text>
    <code>
      <coding>
        <system value="http://loinc.org"/>
        <code value="5770-3"/>
        <display value="Bilirub Ur Ql Strip"/>
      </coding>
    </code>
    <valueString value="Negative"/>
    
    <appliesDateTime value="2012-11-09"/>
    <status value="final"/>
    <reliability value="ok"/>
    <subject>
      <reference value="Patient/ID8888804"/>
    </subject>
  </Observation>
  
  </resource>
  <transaction>
    <method value="PUT"/>
    <url value="Observation/ID3456-lab"/>
  </transaction>
</entry>
<entry>
  <resource>
    
    
  <Observation>
  <id value="ID3457-lab"/>
    <text>
      <status value="generated"/>
      <div xmlns="http://www.w3.org/1999/xhtml">2012-11-09: Glucose Ur Strip-mCnc = 0 mg/dL</div>
    </text>
    <code>
      <coding>
        <system value="http://loinc.org"/>
        <code value="5792-7"/>
        <display value="Glucose Ur Strip-mCnc"/>
      </coding>
    </code>
    <valueQuantity>
      <value value="0.0"/>
      <units value="mg/dL"/>
      <system value="http://unitsofmeasure.org" />
      <code value=""/>
    </valueQuantity>
    
    <appliesDateTime value="2012-11-09"/>
    <status value="final"/>
    <reliability value="ok"/>
    <subject>
      <reference value="Patient/ID8888804"/>
    </subject>
  </Observation>
  
  </resource>
  <transaction>
    <method value="PUT"/>
    <url value="Observation/ID3457-lab"/>
  </transaction>
</entry>
<entry>
  <resource>
    
    
  <Observation>
  <id value="ID3458-lab"/>
    <extension url="http://fhir-registry.smarthealthit.org/StructureDefinition/labs#value-range" >
        <valueString value='[&#39;Negative&#39;, &#39;Positive&#39;]'/>
    </extension>
    
    <text>
      <status value="generated"/>
      <div xmlns="http://www.w3.org/1999/xhtml">2012-11-09: Ketones Ur Ql = Negative </div>
    </text>
    <code>
      <coding>
        <system value="http://loinc.org"/>
        <code value="33903-6"/>
        <display value="Ketones Ur Ql"/>
      </coding>
    </code>
    <valueString value="Negative"/>
    
    <appliesDateTime value="2012-11-09"/>
    <status value="final"/>
    <reliability value="ok"/>
    <subject>
      <reference value="Patient/ID8888804"/>
    </subject>
  </Observation>
  
  </resource>
  <transaction>
    <method value="PUT"/>
    <url value="Observation/ID3458-lab"/>
  </transaction>
</entry>
<entry>
  <resource>
    
    
  <Observation>
  <id value="ID3459-lab"/>
    <extension url="http://fhir-registry.smarthealthit.org/StructureDefinition/labs#value-range" >
        <valueString value='[&#39;Negative&#39;, &#39;Positive&#39;]'/>
    </extension>
    
    <text>
      <status value="generated"/>
      <div xmlns="http://www.w3.org/1999/xhtml">2012-11-09: Leukocyte esterase Ur Ql Strip = Negative </div>
    </text>
    <code>
      <coding>
        <system value="http://loinc.org"/>
        <code value="5799-2"/>
        <display value="Leukocyte esterase Ur Ql Strip"/>
      </coding>
    </code>
    <valueString value="Negative"/>
    
    <appliesDateTime value="2012-11-09"/>
    <status value="final"/>
    <reliability value="ok"/>
    <subject>
      <reference value="Patient/ID8888804"/>
    </subject>
  </Observation>
  
  </resource>
  <transaction>
    <method value="PUT"/>
    <url value="Observation/ID3459-lab"/>
  </transaction>
</entry>
<entry>
  <resource>
    
    
  <Observation>
  <id value="ID3460-lab"/>
    <text>
      <status value="generated"/>
      <div xmlns="http://www.w3.org/1999/xhtml">2012-11-09: Microalbumin Ur-mCnc = 0.5 mg/dL</div>
    </text>
    <code>
      <coding>
        <system value="http://loinc.org"/>
        <code value="14957-5"/>
        <display value="Microalbumin Ur-mCnc"/>
      </coding>
    </code>
    <valueQuantity>
      <value value="0.5"/>
      <units value="mg/dL"/>
      <system value="http://unitsofmeasure.org" />
      <code value=""/>
    </valueQuantity>
    
    <appliesDateTime value="2012-11-09"/>
    <status value="final"/>
    <reliability value="ok"/>
    <subject>
      <reference value="Patient/ID8888804"/>
    </subject>
  </Observation>
  
  </resource>
  <transaction>
    <method value="PUT"/>
    <url value="Observation/ID3460-lab"/>
  </transaction>
</entry>
<entry>
  <resource>
    
    
  <Observation>
  <id value="ID3461-lab"/>
    <extension url="http://fhir-registry.smarthealthit.org/StructureDefinition/labs#value-range" >
        <valueString value='[&#39;Negative&#39;, &#39;Positive&#39;]'/>
    </extension>
    
    <text>
      <status value="generated"/>
      <div xmlns="http://www.w3.org/1999/xhtml">2012-11-09: Nitrite Ur Ql Strip = Negative </div>
    </text>
    <code>
      <coding>
        <system value="http://loinc.org"/>
        <code value="5802-4"/>
        <display value="Nitrite Ur Ql Strip"/>
      </coding>
    </code>
    <valueString value="Negative"/>
    
    <appliesDateTime value="2012-11-09"/>
    <status value="final"/>
    <reliability value="ok"/>
    <subject>
      <reference value="Patient/ID8888804"/>
    </subject>
  </Observation>
  
  </resource>
  <transaction>
    <method value="PUT"/>
    <url value="Observation/ID3461-lab"/>
  </transaction>
</entry>
<entry>
  <resource>
    
    
  <Observation>
  <id value="ID3462-lab"/>
    <extension url="http://fhir-registry.smarthealthit.org/StructureDefinition/labs#value-range" >
        <valueString value='[&#39;Negative&#39;, &#39;Positive&#39;]'/>
    </extension>
    
    <text>
      <status value="generated"/>
      <div xmlns="http://www.w3.org/1999/xhtml">2012-11-09: Hgb Ur Ql Strip = Negative </div>
    </text>
    <code>
      <coding>
        <system value="http://loinc.org"/>
        <code value="5794-3"/>
        <display value="Hgb Ur Ql Strip"/>
      </coding>
    </code>
    <valueString value="Negative"/>
    
    <appliesDateTime value="2012-11-09"/>
    <status value="final"/>
    <reliability value="ok"/>
    <subject>
      <reference value="Patient/ID8888804"/>
    </subject>
  </Observation>
  
  </resource>
  <transaction>
    <method value="PUT"/>
    <url value="Observation/ID3462-lab"/>
  </transaction>
</entry>
<entry>
  <resource>
    
    
  <Observation>
  <id value="ID3463-lab"/>
    <text>
      <status value="generated"/>
      <div xmlns="http://www.w3.org/1999/xhtml">2012-11-09: pH Ur Strip = 5 [pH]</div>
    </text>
    <code>
      <coding>
        <system value="http://loinc.org"/>
        <code value="5803-2"/>
        <display value="pH Ur Strip"/>
      </coding>
    </code>
    <valueQuantity>
      <value value="5.0"/>
      <units value="[pH]"/>
      <system value="http://unitsofmeasure.org" />
      <code value=""/>
    </valueQuantity>
    
    <appliesDateTime value="2012-11-09"/>
    <status value="final"/>
    <reliability value="ok"/>
    <subject>
      <reference value="Patient/ID8888804"/>
    </subject>
  </Observation>
  
  </resource>
  <transaction>
    <method value="PUT"/>
    <url value="Observation/ID3463-lab"/>
  </transaction>
</entry>
<entry>
  <resource>
    
    
  <Observation>
  <id value="ID3464-lab"/>
    <text>
      <status value="generated"/>
      <div xmlns="http://www.w3.org/1999/xhtml">2012-11-09: Prot Ur Strip-mCnc = 0 mg/dL</div>
    </text>
    <code>
      <coding>
        <system value="http://loinc.org"/>
        <code value="5804-0"/>
        <display value="Prot Ur Strip-mCnc"/>
      </coding>
    </code>
    <valueQuantity>
      <value value="0.0"/>
      <units value="mg/dL"/>
      <system value="http://unitsofmeasure.org" />
      <code value=""/>
    </valueQuantity>
    
    <appliesDateTime value="2012-11-09"/>
    <status value="final"/>
    <reliability value="ok"/>
    <subject>
      <reference value="Patient/ID8888804"/>
    </subject>
  </Observation>
  
  </resource>
  <transaction>
    <method value="PUT"/>
    <url value="Observation/ID3464-lab"/>
  </transaction>
</entry>
<entry>
  <resource>
    
    
  <Observation>
  <id value="ID3465-lab"/>
    <text>
      <status value="generated"/>
      <div xmlns="http://www.w3.org/1999/xhtml">2012-11-09: Sp Gr Ur Strip = 1.015 </div>
    </text>
    <code>
      <coding>
        <system value="http://loinc.org"/>
        <code value="5811-5"/>
        <display value="Sp Gr Ur Strip"/>
      </coding>
    </code>
    <valueQuantity>
      <value value="1.015"/>
      <units value=""/>
      <system value="http://unitsofmeasure.org" />
      <code value=""/>
    </valueQuantity>
    
    <appliesDateTime value="2012-11-09"/>
    <status value="final"/>
    <reliability value="ok"/>
    <subject>
      <reference value="Patient/ID8888804"/>
    </subject>
  </Observation>
  
  </resource>
  <transaction>
    <method value="PUT"/>
    <url value="Observation/ID3465-lab"/>
  </transaction>
</entry>
<entry>
  <resource>
    
    
  <Observation>
  <id value="ID3466-lab"/>
    <text>
      <status value="generated"/>
      <div xmlns="http://www.w3.org/1999/xhtml">2011-07-12: Glucose SerPl-mCnc = 87 mg/dL</div>
    </text>
    <code>
      <coding>
        <system value="http://loinc.org"/>
        <code value="2345-7"/>
        <display value="Glucose SerPl-mCnc"/>
      </coding>
    </code>
    <valueQuantity>
      <value value="87.0"/>
      <units value="mg/dL"/>
      <system value="http://unitsofmeasure.org" />
      <code value=""/>
    </valueQuantity>
    
    <appliesDateTime value="2011-07-12"/>
    <status value="final"/>
    <reliability value="ok"/>
    <subject>
      <reference value="Patient/ID8888804"/>
    </subject>
  </Observation>
  
  </resource>
  <transaction>
    <method value="PUT"/>
    <url value="Observation/ID3466-lab"/>
  </transaction>
</entry>
<entry>
  <resource>
    
    
  <Observation>
  <id value="ID3467-lab"/>
    <text>
      <status value="generated"/>
      <div xmlns="http://www.w3.org/1999/xhtml">2011-07-12: Calcium SerPl-mCnc = 9.4 mg/dL</div>
    </text>
    <code>
      <coding>
        <system value="http://loinc.org"/>
        <code value="17861-6"/>
        <display value="Calcium SerPl-mCnc"/>
      </coding>
    </code>
    <valueQuantity>
      <value value="9.4"/>
      <units value="mg/dL"/>
      <system value="http://unitsofmeasure.org" />
      <code value=""/>
    </valueQuantity>
    
    <appliesDateTime value="2011-07-12"/>
    <status value="final"/>
    <reliability value="ok"/>
    <subject>
      <reference value="Patient/ID8888804"/>
    </subject>
  </Observation>
  
  </resource>
  <transaction>
    <method value="PUT"/>
    <url value="Observation/ID3467-lab"/>
  </transaction>
</entry>
<entry>
  <resource>
    
    
  <Observation>
  <id value="ID3468-lab"/>
    <text>
      <status value="generated"/>
      <div xmlns="http://www.w3.org/1999/xhtml">2011-07-12: Prot SerPl-mCnc = 6.7 g/dL</div>
    </text>
    <code>
      <coding>
        <system value="http://loinc.org"/>
        <code value="2885-2"/>
        <display value="Prot SerPl-mCnc"/>
      </coding>
    </code>
    <valueQuantity>
      <value value="6.7"/>
      <units value="g/dL"/>
      <system value="http://unitsofmeasure.org" />
      <code value=""/>
    </valueQuantity>
    
    <appliesDateTime value="2011-07-12"/>
    <status value="final"/>
    <reliability value="ok"/>
    <subject>
      <reference value="Patient/ID8888804"/>
    </subject>
  </Observation>
  
  </resource>
  <transaction>
    <method value="PUT"/>
    <url value="Observation/ID3468-lab"/>
  </transaction>
</entry>
<entry>
  <resource>
    
    
  <Observation>
  <id value="ID3469-lab"/>
    <text>
      <status value="generated"/>
      <div xmlns="http://www.w3.org/1999/xhtml">2011-07-12: Albumin SerPl-mCnc = 4.3 g/dL</div>
    </text>
    <code>
      <coding>
        <system value="http://loinc.org"/>
        <code value="1751-7"/>
        <display value="Albumin SerPl-mCnc"/>
      </coding>
    </code>
    <valueQuantity>
      <value value="4.3"/>
      <units value="g/dL"/>
      <system value="http://unitsofmeasure.org" />
      <code value=""/>
    </valueQuantity>
    
    <appliesDateTime value="2011-07-12"/>
    <status value="final"/>
    <reliability value="ok"/>
    <subject>
      <reference value="Patient/ID8888804"/>
    </subject>
  </Observation>
  
  </resource>
  <transaction>
    <method value="PUT"/>
    <url value="Observation/ID3469-lab"/>
  </transaction>
</entry>
<entry>
  <resource>
    
    
  <Observation>
  <id value="ID3470-lab"/>
    <text>
      <status value="generated"/>
      <div xmlns="http://www.w3.org/1999/xhtml">2011-07-12: Sodium SerPl-sCnc = 140 mmol/L</div>
    </text>
    <code>
      <coding>
        <system value="http://loinc.org"/>
        <code value="2951-2"/>
        <display value="Sodium SerPl-sCnc"/>
      </coding>
    </code>
    <valueQuantity>
      <value value="140.0"/>
      <units value="mmol/L"/>
      <system value="http://unitsofmeasure.org" />
      <code value=""/>
    </valueQuantity>
    
    <appliesDateTime value="2011-07-12"/>
    <status value="final"/>
    <reliability value="ok"/>
    <subject>
      <reference value="Patient/ID8888804"/>
    </subject>
  </Observation>
  
  </resource>
  <transaction>
    <method value="PUT"/>
    <url value="Observation/ID3470-lab"/>
  </transaction>
</entry>
<entry>
  <resource>
    
    
  <Observation>
  <id value="ID3471-lab"/>
    <text>
      <status value="generated"/>
      <div xmlns="http://www.w3.org/1999/xhtml">2011-07-12: Potassium SerPl-sCnc = 4.2 mmol/L</div>
    </text>
    <code>
      <coding>
        <system value="http://loinc.org"/>
        <code value="2823-3"/>
        <display value="Potassium SerPl-sCnc"/>
      </coding>
    </code>
    <valueQuantity>
      <value value="4.2"/>
      <units value="mmol/L"/>
      <system value="http://unitsofmeasure.org" />
      <code value=""/>
    </valueQuantity>
    
    <appliesDateTime value="2011-07-12"/>
    <status value="final"/>
    <reliability value="ok"/>
    <subject>
      <reference value="Patient/ID8888804"/>
    </subject>
  </Observation>
  
  </resource>
  <transaction>
    <method value="PUT"/>
    <url value="Observation/ID3471-lab"/>
  </transaction>
</entry>
<entry>
  <resource>
    
    
  <Observation>
  <id value="ID3472-lab"/>
    <text>
      <status value="generated"/>
      <div xmlns="http://www.w3.org/1999/xhtml">2011-07-12: CO2 SerPl-sCnc = 21 mmol/L</div>
    </text>
    <code>
      <coding>
        <system value="http://loinc.org"/>
        <code value="2028-9"/>
        <display value="CO2 SerPl-sCnc"/>
      </coding>
    </code>
    <valueQuantity>
      <value value="21.0"/>
      <units value="mmol/L"/>
      <system value="http://unitsofmeasure.org" />
      <code value=""/>
    </valueQuantity>
    
    <appliesDateTime value="2011-07-12"/>
    <status value="final"/>
    <reliability value="ok"/>
    <subject>
      <reference value="Patient/ID8888804"/>
    </subject>
  </Observation>
  
  </resource>
  <transaction>
    <method value="PUT"/>
    <url value="Observation/ID3472-lab"/>
  </transaction>
</entry>
<entry>
  <resource>
    
    
  <Observation>
  <id value="ID3473-lab"/>
    <text>
      <status value="generated"/>
      <div xmlns="http://www.w3.org/1999/xhtml">2011-07-12: Chloride SerPl-sCnc = 102 mmol/L</div>
    </text>
    <code>
      <coding>
        <system value="http://loinc.org"/>
        <code value="2075-0"/>
        <display value="Chloride SerPl-sCnc"/>
      </coding>
    </code>
    <valueQuantity>
      <value value="102.0"/>
      <units value="mmol/L"/>
      <system value="http://unitsofmeasure.org" />
      <code value=""/>
    </valueQuantity>
    
    <appliesDateTime value="2011-07-12"/>
    <status value="final"/>
    <reliability value="ok"/>
    <subject>
      <reference value="Patient/ID8888804"/>
    </subject>
  </Observation>
  
  </resource>
  <transaction>
    <method value="PUT"/>
    <url value="Observation/ID3473-lab"/>
  </transaction>
</entry>
<entry>
  <resource>
    
    
  <Observation>
  <id value="ID3474-lab"/>
    <text>
      <status value="generated"/>
      <div xmlns="http://www.w3.org/1999/xhtml">2011-07-12: BUN SerPl-mCnc = 8 mg/dL</div>
    </text>
    <code>
      <coding>
        <system value="http://loinc.org"/>
        <code value="3094-0"/>
        <display value="BUN SerPl-mCnc"/>
      </coding>
    </code>
    <valueQuantity>
      <value value="8.0"/>
      <units value="mg/dL"/>
      <system value="http://unitsofmeasure.org" />
      <code value=""/>
    </valueQuantity>
    
    <appliesDateTime value="2011-07-12"/>
    <status value="final"/>
    <reliability value="ok"/>
    <subject>
      <reference value="Patient/ID8888804"/>
    </subject>
  </Observation>
  
  </resource>
  <transaction>
    <method value="PUT"/>
    <url value="Observation/ID3474-lab"/>
  </transaction>
</entry>
<entry>
  <resource>
    
    
  <Observation>
  <id value="ID3475-lab"/>
    <text>
      <status value="generated"/>
      <div xmlns="http://www.w3.org/1999/xhtml">2011-07-12: Creat SerPl-mCnc = 0.79 mg/dL</div>
    </text>
    <code>
      <coding>
        <system value="http://loinc.org"/>
        <code value="2160-0"/>
        <display value="Creat SerPl-mCnc"/>
      </coding>
    </code>
    <valueQuantity>
      <value value="0.79"/>
      <units value="mg/dL"/>
      <system value="http://unitsofmeasure.org" />
      <code value=""/>
    </valueQuantity>
    
    <appliesDateTime value="2011-07-12"/>
    <status value="final"/>
    <reliability value="ok"/>
    <subject>
      <reference value="Patient/ID8888804"/>
    </subject>
  </Observation>
  
  </resource>
  <transaction>
    <method value="PUT"/>
    <url value="Observation/ID3475-lab"/>
  </transaction>
</entry>
<entry>
  <resource>
    
    
  <Observation>
  <id value="ID3476-lab"/>
    <text>
      <status value="generated"/>
      <div xmlns="http://www.w3.org/1999/xhtml">2011-07-12: ALP SerPl-cCnc = 58 U/L</div>
    </text>
    <code>
      <coding>
        <system value="http://loinc.org"/>
        <code value="6768-6"/>
        <display value="ALP SerPl-cCnc"/>
      </coding>
    </code>
    <valueQuantity>
      <value value="58.0"/>
      <units value="U/L"/>
      <system value="http://unitsofmeasure.org" />
      <code value=""/>
    </valueQuantity>
    
    <appliesDateTime value="2011-07-12"/>
    <status value="final"/>
    <reliability value="ok"/>
    <subject>
      <reference value="Patient/ID8888804"/>
    </subject>
  </Observation>
  
  </resource>
  <transaction>
    <method value="PUT"/>
    <url value="Observation/ID3476-lab"/>
  </transaction>
</entry>
<entry>
  <resource>
    
    
  <Observation>
  <id value="ID3477-lab"/>
    <text>
      <status value="generated"/>
      <div xmlns="http://www.w3.org/1999/xhtml">2011-07-12: ALT SerPl-cCnc = 24 U/L</div>
    </text>
    <code>
      <coding>
        <system value="http://loinc.org"/>
        <code value="1742-6"/>
        <display value="ALT SerPl-cCnc"/>
      </coding>
    </code>
    <valueQuantity>
      <value value="24.0"/>
      <units value="U/L"/>
      <system value="http://unitsofmeasure.org" />
      <code value=""/>
    </valueQuantity>
    
    <appliesDateTime value="2011-07-12"/>
    <status value="final"/>
    <reliability value="ok"/>
    <subject>
      <reference value="Patient/ID8888804"/>
    </subject>
  </Observation>
  
  </resource>
  <transaction>
    <method value="PUT"/>
    <url value="Observation/ID3477-lab"/>
  </transaction>
</entry>
<entry>
  <resource>
    
    
  <Observation>
  <id value="ID3478-lab"/>
    <text>
      <status value="generated"/>
      <div xmlns="http://www.w3.org/1999/xhtml">2011-07-12: AST SerPl-cCnc = 21 U/L</div>
    </text>
    <code>
      <coding>
        <system value="http://loinc.org"/>
        <code value="1920-8"/>
        <display value="AST SerPl-cCnc"/>
      </coding>
    </code>
    <valueQuantity>
      <value value="21.0"/>
      <units value="U/L"/>
      <system value="http://unitsofmeasure.org" />
      <code value=""/>
    </valueQuantity>
    
    <appliesDateTime value="2011-07-12"/>
    <status value="final"/>
    <reliability value="ok"/>
    <subject>
      <reference value="Patient/ID8888804"/>
    </subject>
  </Observation>
  
  </resource>
  <transaction>
    <method value="PUT"/>
    <url value="Observation/ID3478-lab"/>
  </transaction>
</entry>
<entry>
  <resource>
    
    
  <Observation>
  <id value="ID3479-lab"/>
    <text>
      <status value="generated"/>
      <div xmlns="http://www.w3.org/1999/xhtml">2011-07-12: Bilirub SerPl-mCnc = 0.6 mg/dL</div>
    </text>
    <code>
      <coding>
        <system value="http://loinc.org"/>
        <code value="1975-2"/>
        <display value="Bilirub SerPl-mCnc"/>
      </coding>
    </code>
    <valueQuantity>
      <value value="0.6"/>
      <units value="mg/dL"/>
      <system value="http://unitsofmeasure.org" />
      <code value=""/>
    </valueQuantity>
    
    <appliesDateTime value="2011-07-12"/>
    <status value="final"/>
    <reliability value="ok"/>
    <subject>
      <reference value="Patient/ID8888804"/>
    </subject>
  </Observation>
  
  </resource>
  <transaction>
    <method value="PUT"/>
    <url value="Observation/ID3479-lab"/>
  </transaction>
</entry>
<entry>
  <resource>
    
    
  <Observation>
  <id value="ID3480-lab"/>
    <text>
      <status value="generated"/>
      <div xmlns="http://www.w3.org/1999/xhtml">2011-07-12: PSA SerPl-mCnc = 0.75 ng/mL</div>
    </text>
    <code>
      <coding>
        <system value="http://loinc.org"/>
        <code value="2857-1"/>
        <display value="PSA SerPl-mCnc"/>
      </coding>
    </code>
    <valueQuantity>
      <value value="0.75"/>
      <units value="ng/mL"/>
      <system value="http://unitsofmeasure.org" />
      <code value=""/>
    </valueQuantity>
    
    <appliesDateTime value="2011-07-12"/>
    <status value="final"/>
    <reliability value="ok"/>
    <subject>
      <reference value="Patient/ID8888804"/>
    </subject>
  </Observation>
  
  </resource>
  <transaction>
    <method value="PUT"/>
    <url value="Observation/ID3480-lab"/>
  </transaction>
</entry>
<entry>
  <resource>
    
    
  <Observation>
  <id value="ID3481-lab"/>
    <text>
      <status value="generated"/>
      <div xmlns="http://www.w3.org/1999/xhtml">2011-07-12: Urate SerPl-mCnc = 5.9 mg/dL</div>
    </text>
    <code>
      <coding>
        <system value="http://loinc.org"/>
        <code value="3084-1"/>
        <display value="Urate SerPl-mCnc"/>
      </coding>
    </code>
    <valueQuantity>
      <value value="5.9"/>
      <units value="mg/dL"/>
      <system value="http://unitsofmeasure.org" />
      <code value=""/>
    </valueQuantity>
    
    <appliesDateTime value="2011-07-12"/>
    <status value="final"/>
    <reliability value="ok"/>
    <subject>
      <reference value="Patient/ID8888804"/>
    </subject>
  </Observation>
  
  </resource>
  <transaction>
    <method value="PUT"/>
    <url value="Observation/ID3481-lab"/>
  </transaction>
</entry>
<entry>
  <resource>
    
    
  <Observation>
  <id value="ID3482-lab"/>
    <text>
      <status value="generated"/>
      <div xmlns="http://www.w3.org/1999/xhtml">2012-05-06: Glucose SerPl-mCnc = 100 mg/dL</div>
    </text>
    <code>
      <coding>
        <system value="http://loinc.org"/>
        <code value="2345-7"/>
        <display value="Glucose SerPl-mCnc"/>
      </coding>
    </code>
    <valueQuantity>
      <value value="100.0"/>
      <units value="mg/dL"/>
      <system value="http://unitsofmeasure.org" />
      <code value=""/>
    </valueQuantity>
    
    <appliesDateTime value="2012-05-06"/>
    <status value="final"/>
    <reliability value="ok"/>
    <subject>
      <reference value="Patient/ID8888804"/>
    </subject>
  </Observation>
  
  </resource>
  <transaction>
    <method value="PUT"/>
    <url value="Observation/ID3482-lab"/>
  </transaction>
</entry>
<entry>
  <resource>
    
    
  <Observation>
  <id value="ID3483-lab"/>
    <text>
      <status value="generated"/>
      <div xmlns="http://www.w3.org/1999/xhtml">2012-05-06: Calcium SerPl-mCnc = 8.6 mg/dL</div>
    </text>
    <code>
      <coding>
        <system value="http://loinc.org"/>
        <code value="17861-6"/>
        <display value="Calcium SerPl-mCnc"/>
      </coding>
    </code>
    <valueQuantity>
      <value value="8.6"/>
      <units value="mg/dL"/>
      <system value="http://unitsofmeasure.org" />
      <code value=""/>
    </valueQuantity>
    
    <appliesDateTime value="2012-05-06"/>
    <status value="final"/>
    <reliability value="ok"/>
    <subject>
      <reference value="Patient/ID8888804"/>
    </subject>
  </Observation>
  
  </resource>
  <transaction>
    <method value="PUT"/>
    <url value="Observation/ID3483-lab"/>
  </transaction>
</entry>
<entry>
  <resource>
    
    
  <Observation>
  <id value="ID3484-lab"/>
    <text>
      <status value="generated"/>
      <div xmlns="http://www.w3.org/1999/xhtml">2012-05-06: Prot SerPl-mCnc = 6.9 g/dL</div>
    </text>
    <code>
      <coding>
        <system value="http://loinc.org"/>
        <code value="2885-2"/>
        <display value="Prot SerPl-mCnc"/>
      </coding>
    </code>
    <valueQuantity>
      <value value="6.9"/>
      <units value="g/dL"/>
      <system value="http://unitsofmeasure.org" />
      <code value=""/>
    </valueQuantity>
    
    <appliesDateTime value="2012-05-06"/>
    <status value="final"/>
    <reliability value="ok"/>
    <subject>
      <reference value="Patient/ID8888804"/>
    </subject>
  </Observation>
  
  </resource>
  <transaction>
    <method value="PUT"/>
    <url value="Observation/ID3484-lab"/>
  </transaction>
</entry>
<entry>
  <resource>
    
    
  <Observation>
  <id value="ID3485-lab"/>
    <text>
      <status value="generated"/>
      <div xmlns="http://www.w3.org/1999/xhtml">2012-05-06: Albumin SerPl-mCnc = 4.1 g/dL</div>
    </text>
    <code>
      <coding>
        <system value="http://loinc.org"/>
        <code value="1751-7"/>
        <display value="Albumin SerPl-mCnc"/>
      </coding>
    </code>
    <valueQuantity>
      <value value="4.1"/>
      <units value="g/dL"/>
      <system value="http://unitsofmeasure.org" />
      <code value=""/>
    </valueQuantity>
    
    <appliesDateTime value="2012-05-06"/>
    <status value="final"/>
    <reliability value="ok"/>
    <subject>
      <reference value="Patient/ID8888804"/>
    </subject>
  </Observation>
  
  </resource>
  <transaction>
    <method value="PUT"/>
    <url value="Observation/ID3485-lab"/>
  </transaction>
</entry>
<entry>
  <resource>
    
    
  <Observation>
  <id value="ID3486-lab"/>
    <text>
      <status value="generated"/>
      <div xmlns="http://www.w3.org/1999/xhtml">2012-05-06: Sodium SerPl-sCnc = 140 mmol/L</div>
    </text>
    <code>
      <coding>
        <system value="http://loinc.org"/>
        <code value="2951-2"/>
        <display value="Sodium SerPl-sCnc"/>
      </coding>
    </code>
    <valueQuantity>
      <value value="140.0"/>
      <units value="mmol/L"/>
      <system value="http://unitsofmeasure.org" />
      <code value=""/>
    </valueQuantity>
    
    <appliesDateTime value="2012-05-06"/>
    <status value="final"/>
    <reliability value="ok"/>
    <subject>
      <reference value="Patient/ID8888804"/>
    </subject>
  </Observation>
  
  </resource>
  <transaction>
    <method value="PUT"/>
    <url value="Observation/ID3486-lab"/>
  </transaction>
</entry>
<entry>
  <resource>
    
    
  <Observation>
  <id value="ID3487-lab"/>
    <text>
      <status value="generated"/>
      <div xmlns="http://www.w3.org/1999/xhtml">2012-05-06: Potassium SerPl-sCnc = 4.4 mmol/L</div>
    </text>
    <code>
      <coding>
        <system value="http://loinc.org"/>
        <code value="2823-3"/>
        <display value="Potassium SerPl-sCnc"/>
      </coding>
    </code>
    <valueQuantity>
      <value value="4.4"/>
      <units value="mmol/L"/>
      <system value="http://unitsofmeasure.org" />
      <code value=""/>
    </valueQuantity>
    
    <appliesDateTime value="2012-05-06"/>
    <status value="final"/>
    <reliability value="ok"/>
    <subject>
      <reference value="Patient/ID8888804"/>
    </subject>
  </Observation>
  
  </resource>
  <transaction>
    <method value="PUT"/>
    <url value="Observation/ID3487-lab"/>
  </transaction>
</entry>
<entry>
  <resource>
    
    
  <Observation>
  <id value="ID3488-lab"/>
    <text>
      <status value="generated"/>
      <div xmlns="http://www.w3.org/1999/xhtml">2012-05-06: CO2 SerPl-sCnc = 22 mmol/L</div>
    </text>
    <code>
      <coding>
        <system value="http://loinc.org"/>
        <code value="2028-9"/>
        <display value="CO2 SerPl-sCnc"/>
      </coding>
    </code>
    <valueQuantity>
      <value value="22.0"/>
      <units value="mmol/L"/>
      <system value="http://unitsofmeasure.org" />
      <code value=""/>
    </valueQuantity>
    
    <appliesDateTime value="2012-05-06"/>
    <status value="final"/>
    <reliability value="ok"/>
    <subject>
      <reference value="Patient/ID8888804"/>
    </subject>
  </Observation>
  
  </resource>
  <transaction>
    <method value="PUT"/>
    <url value="Observation/ID3488-lab"/>
  </transaction>
</entry>
<entry>
  <resource>
    
    
  <Observation>
  <id value="ID3489-lab"/>
    <text>
      <status value="generated"/>
      <div xmlns="http://www.w3.org/1999/xhtml">2012-05-06: Chloride SerPl-sCnc = 105 mmol/L</div>
    </text>
    <code>
      <coding>
        <system value="http://loinc.org"/>
        <code value="2075-0"/>
        <display value="Chloride SerPl-sCnc"/>
      </coding>
    </code>
    <valueQuantity>
      <value value="105.0"/>
      <units value="mmol/L"/>
      <system value="http://unitsofmeasure.org" />
      <code value=""/>
    </valueQuantity>
    
    <appliesDateTime value="2012-05-06"/>
    <status value="final"/>
    <reliability value="ok"/>
    <subject>
      <reference value="Patient/ID8888804"/>
    </subject>
  </Observation>
  
  </resource>
  <transaction>
    <method value="PUT"/>
    <url value="Observation/ID3489-lab"/>
  </transaction>
</entry>
<entry>
  <resource>
    
    
  <Observation>
  <id value="ID3490-lab"/>
    <text>
      <status value="generated"/>
      <div xmlns="http://www.w3.org/1999/xhtml">2012-05-06: BUN SerPl-mCnc = 13 mg/dL</div>
    </text>
    <code>
      <coding>
        <system value="http://loinc.org"/>
        <code value="3094-0"/>
        <display value="BUN SerPl-mCnc"/>
      </coding>
    </code>
    <valueQuantity>
      <value value="13.0"/>
      <units value="mg/dL"/>
      <system value="http://unitsofmeasure.org" />
      <code value=""/>
    </valueQuantity>
    
    <appliesDateTime value="2012-05-06"/>
    <status value="final"/>
    <reliability value="ok"/>
    <subject>
      <reference value="Patient/ID8888804"/>
    </subject>
  </Observation>
  
  </resource>
  <transaction>
    <method value="PUT"/>
    <url value="Observation/ID3490-lab"/>
  </transaction>
</entry>
<entry>
  <resource>
    
    
  <Observation>
  <id value="ID3491-lab"/>
    <text>
      <status value="generated"/>
      <div xmlns="http://www.w3.org/1999/xhtml">2012-05-06: Creat SerPl-mCnc = 0.89 mg/dL</div>
    </text>
    <code>
      <coding>
        <system value="http://loinc.org"/>
        <code value="2160-0"/>
        <display value="Creat SerPl-mCnc"/>
      </coding>
    </code>
    <valueQuantity>
      <value value="0.89"/>
      <units value="mg/dL"/>
      <system value="http://unitsofmeasure.org" />
      <code value=""/>
    </valueQuantity>
    
    <appliesDateTime value="2012-05-06"/>
    <status value="final"/>
    <reliability value="ok"/>
    <subject>
      <reference value="Patient/ID8888804"/>
    </subject>
  </Observation>
  
  </resource>
  <transaction>
    <method value="PUT"/>
    <url value="Observation/ID3491-lab"/>
  </transaction>
</entry>
<entry>
  <resource>
    
    
  <Observation>
  <id value="ID3492-lab"/>
    <text>
      <status value="generated"/>
      <div xmlns="http://www.w3.org/1999/xhtml">2012-05-06: ALP SerPl-cCnc = 67 U/L</div>
    </text>
    <code>
      <coding>
        <system value="http://loinc.org"/>
        <code value="6768-6"/>
        <display value="ALP SerPl-cCnc"/>
      </coding>
    </code>
    <valueQuantity>
      <value value="67.0"/>
      <units value="U/L"/>
      <system value="http://unitsofmeasure.org" />
      <code value=""/>
    </valueQuantity>
    
    <appliesDateTime value="2012-05-06"/>
    <status value="final"/>
    <reliability value="ok"/>
    <subject>
      <reference value="Patient/ID8888804"/>
    </subject>
  </Observation>
  
  </resource>
  <transaction>
    <method value="PUT"/>
    <url value="Observation/ID3492-lab"/>
  </transaction>
</entry>
<entry>
  <resource>
    
    
  <Observation>
  <id value="ID3493-lab"/>
    <text>
      <status value="generated"/>
      <div xmlns="http://www.w3.org/1999/xhtml">2012-05-06: ALT SerPl-cCnc = 30 U/L</div>
    </text>
    <code>
      <coding>
        <system value="http://loinc.org"/>
        <code value="1742-6"/>
        <display value="ALT SerPl-cCnc"/>
      </coding>
    </code>
    <valueQuantity>
      <value value="30.0"/>
      <units value="U/L"/>
      <system value="http://unitsofmeasure.org" />
      <code value=""/>
    </valueQuantity>
    
    <appliesDateTime value="2012-05-06"/>
    <status value="final"/>
    <reliability value="ok"/>
    <subject>
      <reference value="Patient/ID8888804"/>
    </subject>
  </Observation>
  
  </resource>
  <transaction>
    <method value="PUT"/>
    <url value="Observation/ID3493-lab"/>
  </transaction>
</entry>
<entry>
  <resource>
    
    
  <Observation>
  <id value="ID3494-lab"/>
    <text>
      <status value="generated"/>
      <div xmlns="http://www.w3.org/1999/xhtml">2012-05-06: AST SerPl-cCnc = 24 U/L</div>
    </text>
    <code>
      <coding>
        <system value="http://loinc.org"/>
        <code value="1920-8"/>
        <display value="AST SerPl-cCnc"/>
      </coding>
    </code>
    <valueQuantity>
      <value value="24.0"/>
      <units value="U/L"/>
      <system value="http://unitsofmeasure.org" />
      <code value=""/>
    </valueQuantity>
    
    <appliesDateTime value="2012-05-06"/>
    <status value="final"/>
    <reliability value="ok"/>
    <subject>
      <reference value="Patient/ID8888804"/>
    </subject>
  </Observation>
  
  </resource>
  <transaction>
    <method value="PUT"/>
    <url value="Observation/ID3494-lab"/>
  </transaction>
</entry>
<entry>
  <resource>
    
    
  <Observation>
  <id value="ID3495-lab"/>
    <text>
      <status value="generated"/>
      <div xmlns="http://www.w3.org/1999/xhtml">2012-05-06: Bilirub SerPl-mCnc = 0.4 mg/dL</div>
    </text>
    <code>
      <coding>
        <system value="http://loinc.org"/>
        <code value="1975-2"/>
        <display value="Bilirub SerPl-mCnc"/>
      </coding>
    </code>
    <valueQuantity>
      <value value="0.4"/>
      <units value="mg/dL"/>
      <system value="http://unitsofmeasure.org" />
      <code value=""/>
    </valueQuantity>
    
    <appliesDateTime value="2012-05-06"/>
    <status value="final"/>
    <reliability value="ok"/>
    <subject>
      <reference value="Patient/ID8888804"/>
    </subject>
  </Observation>
  
  </resource>
  <transaction>
    <method value="PUT"/>
    <url value="Observation/ID3495-lab"/>
  </transaction>
</entry>
<entry>
  <resource>
    
    
  <Observation>
  <id value="ID3496-lab"/>
    <text>
      <status value="generated"/>
      <div xmlns="http://www.w3.org/1999/xhtml">2012-05-06: PSA SerPl-mCnc = 0.85 ng/mL</div>
    </text>
    <code>
      <coding>
        <system value="http://loinc.org"/>
        <code value="2857-1"/>
        <display value="PSA SerPl-mCnc"/>
      </coding>
    </code>
    <valueQuantity>
      <value value="0.85"/>
      <units value="ng/mL"/>
      <system value="http://unitsofmeasure.org" />
      <code value=""/>
    </valueQuantity>
    
    <appliesDateTime value="2012-05-06"/>
    <status value="final"/>
    <reliability value="ok"/>
    <subject>
      <reference value="Patient/ID8888804"/>
    </subject>
  </Observation>
  
  </resource>
  <transaction>
    <method value="PUT"/>
    <url value="Observation/ID3496-lab"/>
  </transaction>
</entry>
<entry>
  <resource>
    
    
  <Observation>
  <id value="ID3497-lab"/>
    <text>
      <status value="generated"/>
      <div xmlns="http://www.w3.org/1999/xhtml">2012-05-06: Urate SerPl-mCnc = 5.4 mg/dL</div>
    </text>
    <code>
      <coding>
        <system value="http://loinc.org"/>
        <code value="3084-1"/>
        <display value="Urate SerPl-mCnc"/>
      </coding>
    </code>
    <valueQuantity>
      <value value="5.4"/>
      <units value="mg/dL"/>
      <system value="http://unitsofmeasure.org" />
      <code value=""/>
    </valueQuantity>
    
    <appliesDateTime value="2012-05-06"/>
    <status value="final"/>
    <reliability value="ok"/>
    <subject>
      <reference value="Patient/ID8888804"/>
    </subject>
  </Observation>
  
  </resource>
  <transaction>
    <method value="PUT"/>
    <url value="Observation/ID3497-lab"/>
  </transaction>
</entry>
<entry>
  <resource>
    
    
  <Observation>
  <id value="ID3498-lab"/>
    <extension url="http://fhir-registry.smarthealthit.org/StructureDefinition/labs#value-range" >
        <valueString value='[&#39;Negative&#39;, &#39;Positive&#39;]'/>
    </extension>
    
    <text>
      <status value="generated"/>
      <div xmlns="http://www.w3.org/1999/xhtml">2012-05-06: HIV1 Ab Ser Ql = Negative </div>
    </text>
    <code>
      <coding>
        <system value="http://loinc.org"/>
        <code value="7917-8"/>
        <display value="HIV1 Ab Ser Ql"/>
      </coding>
    </code>
    <valueString value="Negative"/>
    
    <appliesDateTime value="2012-05-06"/>
    <status value="final"/>
    <reliability value="ok"/>
    <subject>
      <reference value="Patient/ID8888804"/>
    </subject>
  </Observation>
  
  </resource>
  <transaction>
    <method value="PUT"/>
    <url value="Observation/ID3498-lab"/>
  </transaction>
</entry>
<entry>
  <resource>
    
    
  <Observation>
  <id value="ID3499-lab"/>
    <extension url="http://fhir-registry.smarthealthit.org/StructureDefinition/labs#value-range" >
        <valueString value='[&#39;Negative&#39;, &#39;Positive&#39;]'/>
    </extension>
    
    <text>
      <status value="generated"/>
      <div xmlns="http://www.w3.org/1999/xhtml">2012-05-06: RPR Ser Ql = Negative </div>
    </text>
    <code>
      <coding>
        <system value="http://loinc.org"/>
        <code value="20507-0"/>
        <display value="RPR Ser Ql"/>
      </coding>
    </code>
    <valueString value="Negative"/>
    
    <appliesDateTime value="2012-05-06"/>
    <status value="final"/>
    <reliability value="ok"/>
    <subject>
      <reference value="Patient/ID8888804"/>
    </subject>
  </Observation>
  
  </resource>
  <transaction>
    <method value="PUT"/>
    <url value="Observation/ID3499-lab"/>
  </transaction>
</entry>
<entry>
  <resource>
    
    
  <Observation>
  <id value="ID3500-lab"/>
    <text>
      <status value="generated"/>
      <div xmlns="http://www.w3.org/1999/xhtml">2012-05-06: HSV 1 and 2 IgG Ser EIA-Imp = neg I, pos II </div>
    </text>
    <code>
      <coding>
        <system value="http://loinc.org"/>
        <code value="44009-9"/>
        <display value="HSV 1 and 2 IgG Ser EIA-Imp"/>
      </coding>
    </code>
    <valueString value="neg I, pos II"/>
    
    <appliesDateTime value="2012-05-06"/>
    <status value="final"/>
    <reliability value="ok"/>
    <subject>
      <reference value="Patient/ID8888804"/>
    </subject>
  </Observation>
  
  </resource>
  <transaction>
    <method value="PUT"/>
    <url value="Observation/ID3500-lab"/>
  </transaction>
</entry>
<entry>
  <resource>
    
    
  <Observation>
  <id value="ID3501-lab"/>
    <extension url="http://fhir-registry.smarthealthit.org/StructureDefinition/labs#value-range" >
        <valueString value='[&#39;Negative&#39;, &#39;Positive&#39;]'/>
    </extension>
    
    <text>
      <status value="generated"/>
      <div xmlns="http://www.w3.org/1999/xhtml">2012-05-06: N gonorrhoea DNA Ur Ql PCR = Negative </div>
    </text>
    <code>
      <coding>
        <system value="http://loinc.org"/>
        <code value="21416-3"/>
        <display value="N gonorrhoea DNA Ur Ql PCR"/>
      </coding>
    </code>
    <valueString value="Negative"/>
    
    <appliesDateTime value="2012-05-06"/>
    <status value="final"/>
    <reliability value="ok"/>
    <subject>
      <reference value="Patient/ID8888804"/>
    </subject>
  </Observation>
  
  </resource>
  <transaction>
    <method value="PUT"/>
    <url value="Observation/ID3501-lab"/>
  </transaction>
</entry>
<entry>
  <resource>
    
    
  <Observation>
  <id value="ID3502-lab"/>
    <extension url="http://fhir-registry.smarthealthit.org/StructureDefinition/labs#value-range" >
        <valueString value='[&#39;Negative&#39;, &#39;Positive&#39;]'/>
    </extension>
    
    <text>
      <status value="generated"/>
      <div xmlns="http://www.w3.org/1999/xhtml">2012-05-06: Chlamydia DNA Ur Ql PCR = Negative </div>
    </text>
    <code>
      <coding>
        <system value="http://loinc.org"/>
        <code value="34708-8"/>
        <display value="Chlamydia DNA Ur Ql PCR"/>
      </coding>
    </code>
    <valueString value="Negative"/>
    
    <appliesDateTime value="2012-05-06"/>
    <status value="final"/>
    <reliability value="ok"/>
    <subject>
      <reference value="Patient/ID8888804"/>
    </subject>
  </Observation>
  
  </resource>
  <transaction>
    <method value="PUT"/>
    <url value="Observation/ID3502-lab"/>
  </transaction>
</entry>
<entry>
  <resource>
    
    
<MedicationPrescription>
  <id value="ID288-mp"/>
  <text>
    <status value="generated"/>
    <div xmlns="http://www.w3.org/1999/xhtml">
      Flomax 0.4 mg (rxnorm: 1169778)
    </div>
  </text>

  <contained>
    <Medication>
      <id value="med"/>
      <name value="Flomax 0.4 mg"/>
      <code>
	<coding>
	<system value="http://www.nlm.nih.gov/research/umls/rxnorm"/>
	  <code value="1169778"/>
	  <display value="Flomax 0.4 mg"/>
	</coding>
      </code>
    </Medication>
  </contained>

  <status value="active" />
  <patient>
    <reference value="Patient/ID8888804"/>
  </patient>

  <medication>
    <reference value="#med"/>
  </medication>

  <dosageInstruction>
    <scheduledTiming>
    </scheduledTiming>
    <text value="1 capsule po qd, 30 min. before a meal"/>
  </dosageInstruction>
</MedicationPrescription>

  </resource>
  <transaction>
    <method value="PUT"/>
    <url value="MedicationPrescription/ID288-mp"/>
  </transaction>
</entry>
<entry>
  <resource>
    
    
<MedicationPrescription>
  <id value="ID289-mp"/>
  <text>
    <status value="generated"/>
    <div xmlns="http://www.w3.org/1999/xhtml">
      Terazosin 5mg (rxnorm: 313219)
    </div>
  </text>

  <contained>
    <Medication>
      <id value="med"/>
      <name value="Terazosin 5mg"/>
      <code>
	<coding>
	<system value="http://www.nlm.nih.gov/research/umls/rxnorm"/>
	  <code value="313219"/>
	  <display value="Terazosin 5mg"/>
	</coding>
      </code>
    </Medication>
  </contained>

  <status value="active" />
  <patient>
    <reference value="Patient/ID8888804"/>
  </patient>

  <medication>
    <reference value="#med"/>
  </medication>

  <dosageInstruction>
    <scheduledTiming>
    </scheduledTiming>
    <text value="1 capsule po qd at bedtime"/>
  </dosageInstruction>
</MedicationPrescription>

  </resource>
  <transaction>
    <method value="PUT"/>
    <url value="MedicationPrescription/ID289-mp"/>
  </transaction>
</entry>
<entry>
  <resource>
    
    
<MedicationPrescription>
  <id value="ID290-mp"/>
  <text>
    <status value="generated"/>
    <div xmlns="http://www.w3.org/1999/xhtml">
      Naproxen 500mg (rxnorm: 198014)
    </div>
  </text>

  <contained>
    <Medication>
      <id value="med"/>
      <name value="Naproxen 500mg"/>
      <code>
	<coding>
	<system value="http://www.nlm.nih.gov/research/umls/rxnorm"/>
	  <code value="198014"/>
	  <display value="Naproxen 500mg"/>
	</coding>
      </code>
    </Medication>
  </contained>

  <status value="completed" />
  <patient>
    <reference value="Patient/ID8888804"/>
  </patient>

  <medication>
    <reference value="#med"/>
  </medication>

  <dosageInstruction>
    <scheduledTiming>
    </scheduledTiming>
    <text value="1 tab po bid for pain"/>
  </dosageInstruction>
</MedicationPrescription>

  </resource>
  <transaction>
    <method value="PUT"/>
    <url value="MedicationPrescription/ID290-mp"/>
  </transaction>
</entry>
<entry>
  <resource>
    
    
<MedicationPrescription>
  <id value="ID291-mp"/>
  <text>
    <status value="generated"/>
    <div xmlns="http://www.w3.org/1999/xhtml">
      Celebrex 200mg (rxnorm: 213469)
    </div>
  </text>

  <contained>
    <Medication>
      <id value="med"/>
      <name value="Celebrex 200mg"/>
      <code>
	<coding>
	<system value="http://www.nlm.nih.gov/research/umls/rxnorm"/>
	  <code value="213469"/>
	  <display value="Celebrex 200mg"/>
	</coding>
      </code>
    </Medication>
  </contained>

  <status value="active" />
  <patient>
    <reference value="Patient/ID8888804"/>
  </patient>

  <medication>
    <reference value="#med"/>
  </medication>

  <dosageInstruction>
    <scheduledTiming>
    </scheduledTiming>
    <text value="1 capsule po qd-bid for pain"/>
  </dosageInstruction>
</MedicationPrescription>

  </resource>
  <transaction>
    <method value="PUT"/>
    <url value="MedicationPrescription/ID291-mp"/>
  </transaction>
</entry>
<entry>
  <resource>
    
    
<MedicationPrescription>
  <id value="ID292-mp"/>
  <text>
    <status value="generated"/>
    <div xmlns="http://www.w3.org/1999/xhtml">
      Allopurinol 100mg (rxnorm: 197319)
    </div>
  </text>

  <contained>
    <Medication>
      <id value="med"/>
      <name value="Allopurinol 100mg"/>
      <code>
	<coding>
	<system value="http://www.nlm.nih.gov/research/umls/rxnorm"/>
	  <code value="197319"/>
	  <display value="Allopurinol 100mg"/>
	</coding>
      </code>
    </Medication>
  </contained>

  <status value="completed" />
  <patient>
    <reference value="Patient/ID8888804"/>
  </patient>

  <medication>
    <reference value="#med"/>
  </medication>

  <dosageInstruction>
    <scheduledTiming>
    </scheduledTiming>
    <text value="2 tabs po qd"/>
  </dosageInstruction>
</MedicationPrescription>

  </resource>
  <transaction>
    <method value="PUT"/>
    <url value="MedicationPrescription/ID292-mp"/>
  </transaction>
</entry>
<entry>
  <resource>
    
    
<MedicationPrescription>
  <id value="ID293-mp"/>
  <text>
    <status value="generated"/>
    <div xmlns="http://www.w3.org/1999/xhtml">
      Allopurinol 100mg (rxnorm: 197319)
    </div>
  </text>

  <contained>
    <Medication>
      <id value="med"/>
      <name value="Allopurinol 100mg"/>
      <code>
	<coding>
	<system value="http://www.nlm.nih.gov/research/umls/rxnorm"/>
	  <code value="197319"/>
	  <display value="Allopurinol 100mg"/>
	</coding>
      </code>
    </Medication>
  </contained>

  <status value="active" />
  <patient>
    <reference value="Patient/ID8888804"/>
  </patient>

  <medication>
    <reference value="#med"/>
  </medication>

  <dosageInstruction>
    <scheduledTiming>
    </scheduledTiming>
    <text value="3 tabs po qd"/>
  </dosageInstruction>
</MedicationPrescription>

  </resource>
  <transaction>
    <method value="PUT"/>
    <url value="MedicationPrescription/ID293-mp"/>
  </transaction>
</entry>
<entry>
  <resource>
    
    
<MedicationPrescription>
  <id value="ID294-mp"/>
  <text>
    <status value="generated"/>
    <div xmlns="http://www.w3.org/1999/xhtml">
      Metformin XR 500mg (rxnorm: 860975)
    </div>
  </text>

  <contained>
    <Medication>
      <id value="med"/>
      <name value="Metformin XR 500mg"/>
      <code>
	<coding>
	<system value="http://www.nlm.nih.gov/research/umls/rxnorm"/>
	  <code value="860975"/>
	  <display value="Metformin XR 500mg"/>
	</coding>
      </code>
    </Medication>
  </contained>

  <status value="active" />
  <patient>
    <reference value="Patient/ID8888804"/>
  </patient>

  <medication>
    <reference value="#med"/>
  </medication>

  <dosageInstruction>
    <scheduledTiming>
    </scheduledTiming>
    <text value="1 tab po qd with evening meal"/>
  </dosageInstruction>
</MedicationPrescription>

  </resource>
  <transaction>
    <method value="PUT"/>
    <url value="MedicationPrescription/ID294-mp"/>
  </transaction>
</entry>
  <entry>
  <resource>
    
    
  <Condition>
  <id value="ID553-c"/>
    <text>
     <status value="generated"/>
     <div xmlns="http://www.w3.org/1999/xhtml">Benign prostatic hypertrophy</div>   
   </text>
    <patient>
      <reference value="Patient/ID8888804"/>
    </patient>
    <code> 
      <coding>
        <system value="http://snomed.info/sct"/>
        <code value="266569009"/>
        <display value="Benign prostatic hypertrophy"/>
      </coding>
      <text value="Benign prostatic hypertrophy"/>
    </code>
   <clinicalStatus value="confirmed"/>
   <onsetDateTime value="2010"/>
   
  </Condition>
  
  </resource>
  <transaction>
    <method value="PUT"/>
    <url value="Condition/ID553-c"/>
  </transaction>
</entry>
  <entry>
  <resource>
    
    
  <Condition>
  <id value="ID554-c"/>
    <text>
     <status value="generated"/>
     <div xmlns="http://www.w3.org/1999/xhtml">Joint pain, lower leg</div>   
   </text>
    <patient>
      <reference value="Patient/ID8888804"/>
    </patient>
    <code> 
      <coding>
        <system value="http://snomed.info/sct"/>
        <code value="267953003"/>
        <display value="Joint pain, lower leg"/>
      </coding>
      <text value="Joint pain, lower leg"/>
    </code>
   <clinicalStatus value="confirmed"/>
   <onsetDateTime value="2011-02-03"/>
   
  </Condition>
  
  </resource>
  <transaction>
    <method value="PUT"/>
    <url value="Condition/ID554-c"/>
  </transaction>
</entry>
  <entry>
  <resource>
    
    
  <Condition>
  <id value="ID555-c"/>
    <text>
     <status value="generated"/>
     <div xmlns="http://www.w3.org/1999/xhtml">Gout</div>   
   </text>
    <patient>
      <reference value="Patient/ID8888804"/>
    </patient>
    <code> 
      <coding>
        <system value="http://snomed.info/sct"/>
        <code value="90560007"/>
        <display value="Gout"/>
      </coding>
      <text value="Gout"/>
    </code>
   <clinicalStatus value="confirmed"/>
   <onsetDateTime value="2000"/>
   
  </Condition>
  
  </resource>
  <transaction>
    <method value="PUT"/>
    <url value="Condition/ID555-c"/>
  </transaction>
</entry>
  <entry>
  <resource>
    
    
  <Condition>
  <id value="ID556-c"/>
    <text>
     <status value="generated"/>
     <div xmlns="http://www.w3.org/1999/xhtml">Impaired fasting glucose</div>   
   </text>
    <patient>
      <reference value="Patient/ID8888804"/>
    </patient>
    <code> 
      <coding>
        <system value="http://snomed.info/sct"/>
        <code value="390951007"/>
        <display value="Impaired fasting glucose"/>
      </coding>
      <text value="Impaired fasting glucose"/>
    </code>
   <clinicalStatus value="confirmed"/>
   <onsetDateTime value="2012-11-09"/>
   
  </Condition>
  
  </resource>
  <transaction>
    <method value="PUT"/>
    <url value="Condition/ID556-c"/>
  </transaction>
</entry>
  <entry>
  <resource>
    
    
    <Immunization>
  <id value="ID24-i"/>
        <text>
            <status value="generated"/>
            <div xmlns="http://www.w3.org/1999/xhtml">TdaP</div>
        </text>
        <patient>
            <reference value="Patient/ID8888804"/>
        </patient>
        <date value="2011-07-12"/>
        <vaccineType>
            <coding>
        	<system value="http://www2a.cdc.gov/vaccines/IIS/IISStandards/vaccines.asp?rpt=cvx"/>
		 <code value="115"/>
       		 <display value="TdaP"/>
		</coding>
        </vaccineType>
        <reported value="false"/>
        <wasNotGiven value="false"/>
    </Immunization>
  
  </resource>
  <transaction>
    <method value="PUT"/>
    <url value="Immunization/ID24-i"/>
  </transaction>
</entry>
  <entry>
  <resource>
    
    
    <Immunization>
  <id value="ID25-i"/>
        <text>
            <status value="generated"/>
            <div xmlns="http://www.w3.org/1999/xhtml">Flu Vaccine</div>
        </text>
        <patient>
            <reference value="Patient/ID8888804"/>
        </patient>
        <date value="2012-01-17"/>
        <vaccineType>
            <coding>
        	<system value="http://www2a.cdc.gov/vaccines/IIS/IISStandards/vaccines.asp?rpt=cvx"/>
		 <code value="141"/>
       		 <display value="Flu Vaccine"/>
		</coding>
        </vaccineType>
        <reported value="false"/>
        <wasNotGiven value="false"/>
    </Immunization>
  
  </resource>
  <transaction>
    <method value="PUT"/>
    <url value="Immunization/ID25-i"/>
  </transaction>
</entry>
  <entry>
  <resource>
    
    
    <Immunization>
  <id value="ID26-i"/>
        <text>
            <status value="generated"/>
            <div xmlns="http://www.w3.org/1999/xhtml">Zostavax</div>
        </text>
        <patient>
            <reference value="Patient/ID8888804"/>
        </patient>
        <date value="2012-01-17"/>
        <vaccineType>
            <coding>
        	<system value="http://www2a.cdc.gov/vaccines/IIS/IISStandards/vaccines.asp?rpt=cvx"/>
		 <code value="121"/>
       		 <display value="Zostavax"/>
		</coding>
        </vaccineType>
        <reported value="false"/>
        <wasNotGiven value="false"/>
    </Immunization>
  
  </resource>
  <transaction>
    <method value="PUT"/>
    <url value="Immunization/ID26-i"/>
  </transaction>
</entry>
  <entry>
  <resource>
    
    
    <Immunization>
  <id value="ID27-i"/>
        <text>
            <status value="generated"/>
            <div xmlns="http://www.w3.org/1999/xhtml">Flu Vaccine</div>
        </text>
        <patient>
            <reference value="Patient/ID8888804"/>
        </patient>
        <date value="2012-11-09"/>
        <vaccineType>
            <coding>
        	<system value="http://www2a.cdc.gov/vaccines/IIS/IISStandards/vaccines.asp?rpt=cvx"/>
		 <code value="141"/>
       		 <display value="Flu Vaccine"/>
		</coding>
        </vaccineType>
        <reported value="false"/>
        <wasNotGiven value="false"/>
    </Immunization>
  
  </resource>
  <transaction>
    <method value="PUT"/>
    <url value="Immunization/ID27-i"/>
  </transaction>
</entry>
  <entry>
  <resource>
    
    
    <List>
  <id value="ID62-l"/>
        <text>
            <status value="generated"/>
            <div xmlns="http://www.w3.org/1999/xhtml">No known history of drug allergy</div>
        </text>
        <code>
            <coding>
               <system value="http://loinc.org/"/>
               <code value="11382-9"/>
               <display value="Medication allergy"/>
            </coding>
        </code>
        <subject>
          <reference value="Patient/ID8888804"/>
        </subject>
        <date value="2010"/>
        <mode value="snapshot"/>
        <emptyReason>
            <coding>
                <system value="http://hl7.org/fhir/list-empty-reason"/>
                <code value="nilknown"/>
                <display value="Nil Known"/>
            </coding>
        </emptyReason>
    </List>
  
  </resource>
  <transaction>
    <method value="PUT"/>
    <url value="List/ID62-l"/>
  </transaction>
</entry>

</Bundle>
