<?xml version="1.0" encoding="UTF-8"?>
<Bundle xmlns="http://hl7.org/fhir">
    <type value="transaction"/>

  <entry>
  <resource>
    
    
  <Patient>
    <id value="ID5555003"/>
    <text>
      <status value="generated"/>
      <div xmlns="http://www.w3.org/1999/xhtml">
        <p>Mildred Hoffman</p>
      </div>
    </text>
    <identifier>
      <use value="usual"/>
      <type>
        <coding>
          <system value="http://hl7.org/fhir/v2/0203"/>
          <code value="MR"/>
          <display value="Medical record number"/>
        </coding>
      </type>
      <system value="http://hospital.smarthealthit.org"/>
      <value value="5555003"/>
    </identifier>
    <name>
      <use value="official"/>
      <family value="Hoffman"/>
      <given value="Mildred"/>
      <given value="E."/>
    </name>
    <telecom>
      <system value="email"/>
      <value value="mildred.hoffman@example.com"/>
    </telecom>
    <gender value="female" />
    <birthDate value="1952-05-12" />
    <address>
      <use value="home"/>
      <line value="2001 Airport Road"/>
      <city value="Morrisville"/>
      <state value="NC"/>
      <postalCode value="27560"/>
      <country value="USA"/>
    </address>
    <active value="true"/>
  </Patient>
  
  </resource>
  <request>
    <method value="PUT"/>
    <url value="Patient/ID5555003"/>
  </request>
</entry>
<entry>
  <resource>
    
    
<MedicationOrder>
  <id value="ID335-mp"/>
  <text>
    <status value="generated"/>
    <div xmlns="http://www.w3.org/1999/xhtml">
      Carvedilol Tablet 25mg (rxnorm: 200033)
    </div>
  </text>

  <contained>
    <Medication>
      <id value="med"/>
      <name value="Carvedilol Tablet 25mg"/>
      <code>
	<coding>
	<system value="http://www.nlm.nih.gov/research/umls/rxnorm"/>
	  <code value="200033"/>
	  <display value="Carvedilol Tablet 25mg"/>
	</coding>
      </code>
    </Medication>
  </contained>

  <status value="active" />
  <patient>
    <reference value="Patient/ID5555003"/>
  </patient>

  <medication>
    <reference value="#med"/>
  </medication>

  <dosageInstruction>
    <scheduledTiming>
      <repeat>
        <bounds>
          <start value="2012-04-23"/>
        </bounds>
        <frequency value="2"/>
        <duration value="1"/>
        <durationUnits value="d"/>
      </repeat>
      
    </scheduledTiming>
    <doseQuantity>
      <value value="1"/>
      <unit value="{tablet}"/>
      <system value="http://unitsofmeasure.org"/>
      <code value="{tablet}"/>
    </doseQuantity>
    
    <text value="1 tab bid"/>
  </dosageInstruction>
  <dispense>
     <numberOfRepeatsAllowed value="1"/>
     
     <quantity>
        <value value="60"/>
        <unit value="{tablet}"/>
        <system value="http://unitsofmeasure.org"/>
        <code value="{tablet}"/>
     </quantity>
     
     <expectedSupplyDuration>
        <value value="30"/>
        <unit value="days"/>
        <system value="http://unitsofmeasure.org"/>
        <code value="d"/>
     </expectedSupplyDuration>
     
  </dispense>
  
</MedicationOrder>

  </resource>
  <request>
    <method value="PUT"/>
    <url value="MedicationOrder/ID335-mp"/>
  </request>
</entry>
<entry>
  <resource>
    
    
<MedicationOrder>
  <id value="ID336-mp"/>
  <text>
    <status value="generated"/>
    <div xmlns="http://www.w3.org/1999/xhtml">
      Irbesartan Tablet 300mg (rxnorm: 200096)
    </div>
  </text>

  <contained>
    <Medication>
      <id value="med"/>
      <name value="Irbesartan Tablet 300mg"/>
      <code>
	<coding>
	<system value="http://www.nlm.nih.gov/research/umls/rxnorm"/>
	  <code value="200096"/>
	  <display value="Irbesartan Tablet 300mg"/>
	</coding>
      </code>
    </Medication>
  </contained>

  <status value="active" />
  <patient>
    <reference value="Patient/ID5555003"/>
  </patient>

  <medication>
    <reference value="#med"/>
  </medication>

  <dosageInstruction>
    <scheduledTiming>
      <repeat>
        <bounds>
          <start value="2014-05-24"/>
        </bounds>
        <frequency value="1"/>
        <duration value="1"/>
        <durationUnits value="d"/>
      </repeat>
      
    </scheduledTiming>
    <doseQuantity>
      <value value="1"/>
      <unit value="{tablet}"/>
      <system value="http://unitsofmeasure.org"/>
      <code value="{tablet}"/>
    </doseQuantity>
    
    <text value="1 tab qd"/>
  </dosageInstruction>
  <dispense>
     <numberOfRepeatsAllowed value="1"/>
     
     <quantity>
        <value value="30"/>
        <unit value="{tablet}"/>
        <system value="http://unitsofmeasure.org"/>
        <code value="{tablet}"/>
     </quantity>
     
     <expectedSupplyDuration>
        <value value="30"/>
        <unit value="days"/>
        <system value="http://unitsofmeasure.org"/>
        <code value="d"/>
     </expectedSupplyDuration>
     
  </dispense>
  
</MedicationOrder>

  </resource>
  <request>
    <method value="PUT"/>
    <url value="MedicationOrder/ID336-mp"/>
  </request>
</entry>
<entry>
  <resource>
    
    
<MedicationOrder>
  <id value="ID337-mp"/>
  <text>
    <status value="generated"/>
    <div xmlns="http://www.w3.org/1999/xhtml">
      losartan Tablet 100mg (rxnorm: 979480)
    </div>
  </text>

  <contained>
    <Medication>
      <id value="med"/>
      <name value="losartan Tablet 100mg"/>
      <code>
	<coding>
	<system value="http://www.nlm.nih.gov/research/umls/rxnorm"/>
	  <code value="979480"/>
	  <display value="losartan Tablet 100mg"/>
	</coding>
      </code>
    </Medication>
  </contained>

  <status value="completed" />
  <patient>
    <reference value="Patient/ID5555003"/>
  </patient>

  <medication>
    <reference value="#med"/>
  </medication>

  <dosageInstruction>
    <scheduledTiming>
      <repeat>
        <bounds>
          <start value="2012-07-23"/>
          <end value="2014-05-24"/>
          
        </bounds>
        <frequency value="1"/>
        <duration value="1"/>
        <durationUnits value="d"/>
      </repeat>
      
    </scheduledTiming>
    <doseQuantity>
      <value value="1"/>
      <unit value="{tablet}"/>
      <system value="http://unitsofmeasure.org"/>
      <code value="{tablet}"/>
    </doseQuantity>
    
    <text value="1 tab qd"/>
  </dosageInstruction>
  <dispense>
     <numberOfRepeatsAllowed value="1"/>
     
     <quantity>
        <value value="30"/>
        <unit value="{tablet}"/>
        <system value="http://unitsofmeasure.org"/>
        <code value="{tablet}"/>
     </quantity>
     
     <expectedSupplyDuration>
        <value value="30"/>
        <unit value="days"/>
        <system value="http://unitsofmeasure.org"/>
        <code value="d"/>
     </expectedSupplyDuration>
     
  </dispense>
  
</MedicationOrder>

  </resource>
  <request>
    <method value="PUT"/>
    <url value="MedicationOrder/ID337-mp"/>
  </request>
</entry>
<entry>
  <resource>
    
    
<MedicationOrder>
  <id value="ID338-mp"/>
  <text>
    <status value="generated"/>
    <div xmlns="http://www.w3.org/1999/xhtml">
      Aspirin Tablet 81mg (rxnorm: 243670)
    </div>
  </text>

  <contained>
    <Medication>
      <id value="med"/>
      <name value="Aspirin Tablet 81mg"/>
      <code>
	<coding>
	<system value="http://www.nlm.nih.gov/research/umls/rxnorm"/>
	  <code value="243670"/>
	  <display value="Aspirin Tablet 81mg"/>
	</coding>
      </code>
    </Medication>
  </contained>

  <status value="active" />
  <patient>
    <reference value="Patient/ID5555003"/>
  </patient>

  <medication>
    <reference value="#med"/>
  </medication>

  <dosageInstruction>
    <scheduledTiming>
      <repeat>
        <bounds>
          <start value="2014-11-02"/>
        </bounds>
        <frequency value="1"/>
        <duration value="1"/>
        <durationUnits value="d"/>
      </repeat>
      
    </scheduledTiming>
    <doseQuantity>
      <value value="1"/>
      <unit value="{tablet}"/>
      <system value="http://unitsofmeasure.org"/>
      <code value="{tablet}"/>
    </doseQuantity>
    
    <text value="1 tab qd"/>
  </dosageInstruction>
  <dispense>
     <numberOfRepeatsAllowed value="1"/>
     
     <quantity>
        <value value="30"/>
        <unit value="{tablet}"/>
        <system value="http://unitsofmeasure.org"/>
        <code value="{tablet}"/>
     </quantity>
     
     <expectedSupplyDuration>
        <value value="30"/>
        <unit value="days"/>
        <system value="http://unitsofmeasure.org"/>
        <code value="d"/>
     </expectedSupplyDuration>
     
  </dispense>
  
</MedicationOrder>

  </resource>
  <request>
    <method value="PUT"/>
    <url value="MedicationOrder/ID338-mp"/>
  </request>
</entry>
<entry>
  <resource>
    
    
<MedicationOrder>
  <id value="ID339-mp"/>
  <text>
    <status value="generated"/>
    <div xmlns="http://www.w3.org/1999/xhtml">
      Brilinta Tablet 90mg (rxnorm: 1116639)
    </div>
  </text>

  <contained>
    <Medication>
      <id value="med"/>
      <name value="Brilinta Tablet 90mg"/>
      <code>
	<coding>
	<system value="http://www.nlm.nih.gov/research/umls/rxnorm"/>
	  <code value="1116639"/>
	  <display value="Brilinta Tablet 90mg"/>
	</coding>
      </code>
    </Medication>
  </contained>

  <status value="completed" />
  <patient>
    <reference value="Patient/ID5555003"/>
  </patient>

  <medication>
    <reference value="#med"/>
  </medication>

  <dosageInstruction>
    <scheduledTiming>
      <repeat>
        <bounds>
          <start value="2014-11-01"/>
          <end value="2014-05-14"/>
          
        </bounds>
        <frequency value="1"/>
        <duration value="1"/>
        <durationUnits value="d"/>
      </repeat>
      
    </scheduledTiming>
    <doseQuantity>
      <value value="1"/>
      <unit value="{tablet}"/>
      <system value="http://unitsofmeasure.org"/>
      <code value="{tablet}"/>
    </doseQuantity>
    
    <text value="1 tab qd"/>
  </dosageInstruction>
  <dispense>
     <numberOfRepeatsAllowed value="1"/>
     
     <quantity>
        <value value="30"/>
        <unit value="{tablet}"/>
        <system value="http://unitsofmeasure.org"/>
        <code value="{tablet}"/>
     </quantity>
     
     <expectedSupplyDuration>
        <value value="30"/>
        <unit value="days"/>
        <system value="http://unitsofmeasure.org"/>
        <code value="d"/>
     </expectedSupplyDuration>
     
  </dispense>
  
</MedicationOrder>

  </resource>
  <request>
    <method value="PUT"/>
    <url value="MedicationOrder/ID339-mp"/>
  </request>
</entry>
<entry>
  <resource>
    
    
<MedicationOrder>
  <id value="ID340-mp"/>
  <text>
    <status value="generated"/>
    <div xmlns="http://www.w3.org/1999/xhtml">
      Omeprazole Delayed Release Tablet 20mg (rxnorm: 402014)
    </div>
  </text>

  <contained>
    <Medication>
      <id value="med"/>
      <name value="Omeprazole Delayed Release Tablet 20mg"/>
      <code>
	<coding>
	<system value="http://www.nlm.nih.gov/research/umls/rxnorm"/>
	  <code value="402014"/>
	  <display value="Omeprazole Delayed Release Tablet 20mg"/>
	</coding>
      </code>
    </Medication>
  </contained>

  <status value="active" />
  <patient>
    <reference value="Patient/ID5555003"/>
  </patient>

  <medication>
    <reference value="#med"/>
  </medication>

  <dosageInstruction>
    <scheduledTiming>
      <repeat>
        <bounds>
          <start value="2012-05-02"/>
        </bounds>
        <frequency value="1"/>
        <duration value="1"/>
        <durationUnits value="d"/>
      </repeat>
      
    </scheduledTiming>
    <doseQuantity>
      <value value="1"/>
      <unit value="{tablet}"/>
      <system value="http://unitsofmeasure.org"/>
      <code value="{tablet}"/>
    </doseQuantity>
    
    <text value="1 tab qd"/>
  </dosageInstruction>
  <dispense>
     <numberOfRepeatsAllowed value="1"/>
     
     <quantity>
        <value value="30"/>
        <unit value="{tablet}"/>
        <system value="http://unitsofmeasure.org"/>
        <code value="{tablet}"/>
     </quantity>
     
     <expectedSupplyDuration>
        <value value="30"/>
        <unit value="days"/>
        <system value="http://unitsofmeasure.org"/>
        <code value="d"/>
     </expectedSupplyDuration>
     
  </dispense>
  
</MedicationOrder>

  </resource>
  <request>
    <method value="PUT"/>
    <url value="MedicationOrder/ID340-mp"/>
  </request>
</entry>
<entry>
  <resource>
    
    
<MedicationOrder>
  <id value="ID341-mp"/>
  <text>
    <status value="generated"/>
    <div xmlns="http://www.w3.org/1999/xhtml">
      Synthroid Tablet 50mcg (rxnorm: 966247)
    </div>
  </text>

  <contained>
    <Medication>
      <id value="med"/>
      <name value="Synthroid Tablet 50mcg"/>
      <code>
	<coding>
	<system value="http://www.nlm.nih.gov/research/umls/rxnorm"/>
	  <code value="966247"/>
	  <display value="Synthroid Tablet 50mcg"/>
	</coding>
      </code>
    </Medication>
  </contained>

  <status value="active" />
  <patient>
    <reference value="Patient/ID5555003"/>
  </patient>

  <medication>
    <reference value="#med"/>
  </medication>

  <dosageInstruction>
    <scheduledTiming>
      <repeat>
        <bounds>
          <start value="2014-08-11"/>
        </bounds>
        <frequency value="1"/>
        <duration value="1"/>
        <durationUnits value="d"/>
      </repeat>
      
    </scheduledTiming>
    <doseQuantity>
      <value value="1"/>
      <unit value="{tablet}"/>
      <system value="http://unitsofmeasure.org"/>
      <code value="{tablet}"/>
    </doseQuantity>
    
    <text value="1 tab qd"/>
  </dosageInstruction>
  <dispense>
     <numberOfRepeatsAllowed value="1"/>
     
     <quantity>
        <value value="30"/>
        <unit value="{tablet}"/>
        <system value="http://unitsofmeasure.org"/>
        <code value="{tablet}"/>
     </quantity>
     
     <expectedSupplyDuration>
        <value value="30"/>
        <unit value="days"/>
        <system value="http://unitsofmeasure.org"/>
        <code value="d"/>
     </expectedSupplyDuration>
     
  </dispense>
  
</MedicationOrder>

  </resource>
  <request>
    <method value="PUT"/>
    <url value="MedicationOrder/ID341-mp"/>
  </request>
</entry>
<entry>
  <resource>
    
    
<MedicationOrder>
  <id value="ID342-mp"/>
  <text>
    <status value="generated"/>
    <div xmlns="http://www.w3.org/1999/xhtml">
      Synthroid Tablet 25mcg (rxnorm: 966158)
    </div>
  </text>

  <contained>
    <Medication>
      <id value="med"/>
      <name value="Synthroid Tablet 25mcg"/>
      <code>
	<coding>
	<system value="http://www.nlm.nih.gov/research/umls/rxnorm"/>
	  <code value="966158"/>
	  <display value="Synthroid Tablet 25mcg"/>
	</coding>
      </code>
    </Medication>
  </contained>

  <status value="completed" />
  <patient>
    <reference value="Patient/ID5555003"/>
  </patient>

  <medication>
    <reference value="#med"/>
  </medication>

  <dosageInstruction>
    <scheduledTiming>
      <repeat>
        <bounds>
          <start value="2014-08-11"/>
          <end value="2014-05-03"/>
          
        </bounds>
        <frequency value="1"/>
        <duration value="1"/>
        <durationUnits value="d"/>
      </repeat>
      
    </scheduledTiming>
    <doseQuantity>
      <value value="1"/>
      <unit value="{tablet}"/>
      <system value="http://unitsofmeasure.org"/>
      <code value="{tablet}"/>
    </doseQuantity>
    
    <text value="1 tab qd"/>
  </dosageInstruction>
  <dispense>
     <numberOfRepeatsAllowed value="1"/>
     
     <quantity>
        <value value="30"/>
        <unit value="{tablet}"/>
        <system value="http://unitsofmeasure.org"/>
        <code value="{tablet}"/>
     </quantity>
     
     <expectedSupplyDuration>
        <value value="30"/>
        <unit value="days"/>
        <system value="http://unitsofmeasure.org"/>
        <code value="d"/>
     </expectedSupplyDuration>
     
  </dispense>
  
</MedicationOrder>

  </resource>
  <request>
    <method value="PUT"/>
    <url value="MedicationOrder/ID342-mp"/>
  </request>
</entry>
<entry>
  <resource>
    
    
<MedicationOrder>
  <id value="ID343-mp"/>
  <text>
    <status value="generated"/>
    <div xmlns="http://www.w3.org/1999/xhtml">
      Systane ophthalmic solution (rxnorm: 707566)
    </div>
  </text>

  <contained>
    <Medication>
      <id value="med"/>
      <name value="Systane ophthalmic solution"/>
      <code>
	<coding>
	<system value="http://www.nlm.nih.gov/research/umls/rxnorm"/>
	  <code value="707566"/>
	  <display value="Systane ophthalmic solution"/>
	</coding>
      </code>
    </Medication>
  </contained>

  <status value="active" />
  <patient>
    <reference value="Patient/ID5555003"/>
  </patient>

  <medication>
    <reference value="#med"/>
  </medication>

  <dosageInstruction>
    <scheduledTiming>
      <repeat>
        <bounds>
          <start value="2012-10-17"/>
        </bounds>
        <frequency value="2"/>
        <duration value="1"/>
        <durationUnits value="d"/>
      </repeat>
      
    </scheduledTiming>
    <doseQuantity>
      <value value="1"/>
      <unit value="[drp]"/>
      <system value="http://unitsofmeasure.org"/>
      <code value="[drp]"/>
    </doseQuantity>
    
    <text value="1 drop OU bid"/>
  </dosageInstruction>
  <dispense>
     <numberOfRepeatsAllowed value="1"/>
     
     <quantity>
        <value value="1"/>
        <unit value="[drp]"/>
        <system value="http://unitsofmeasure.org"/>
        <code value="[drp]"/>
     </quantity>
     
     <expectedSupplyDuration>
        <value value="30"/>
        <unit value="days"/>
        <system value="http://unitsofmeasure.org"/>
        <code value="d"/>
     </expectedSupplyDuration>
     
  </dispense>
  
</MedicationOrder>

  </resource>
  <request>
    <method value="PUT"/>
    <url value="MedicationOrder/ID343-mp"/>
  </request>
</entry>
<entry>
  <resource>
    
    
<MedicationOrder>
  <id value="ID344-mp"/>
  <text>
    <status value="generated"/>
    <div xmlns="http://www.w3.org/1999/xhtml">
      ProAir HFA (rxnorm: 745752)
    </div>
  </text>

  <contained>
    <Medication>
      <id value="med"/>
      <name value="ProAir HFA"/>
      <code>
	<coding>
	<system value="http://www.nlm.nih.gov/research/umls/rxnorm"/>
	  <code value="745752"/>
	  <display value="ProAir HFA"/>
	</coding>
      </code>
    </Medication>
  </contained>

  <status value="active" />
  <patient>
    <reference value="Patient/ID5555003"/>
  </patient>

  <medication>
    <reference value="#med"/>
  </medication>

  <dosageInstruction>
    <scheduledTiming>
    </scheduledTiming>
    <text value="2 puffs every 4 hrs for asthma"/>
  </dosageInstruction>
  <dispense>
     <numberOfRepeatsAllowed value="1"/>
     
     <quantity>
        <value value="1"/>
        <unit value=""/>
        <system value="http://unitsofmeasure.org"/>
        <code value=""/>
     </quantity>
     
     <expectedSupplyDuration>
        <value value="30"/>
        <unit value="days"/>
        <system value="http://unitsofmeasure.org"/>
        <code value="d"/>
     </expectedSupplyDuration>
     
  </dispense>
  
</MedicationOrder>

  </resource>
  <request>
    <method value="PUT"/>
    <url value="MedicationOrder/ID344-mp"/>
  </request>
</entry>
<entry>
  <resource>
    
    
<MedicationOrder>
  <id value="ID345-mp"/>
  <text>
    <status value="generated"/>
    <div xmlns="http://www.w3.org/1999/xhtml">
      Flovent 100mcg/inh (rxnorm: 896031)
    </div>
  </text>

  <contained>
    <Medication>
      <id value="med"/>
      <name value="Flovent 100mcg/inh"/>
      <code>
	<coding>
	<system value="http://www.nlm.nih.gov/research/umls/rxnorm"/>
	  <code value="896031"/>
	  <display value="Flovent 100mcg/inh"/>
	</coding>
      </code>
    </Medication>
  </contained>

  <status value="active" />
  <patient>
    <reference value="Patient/ID5555003"/>
  </patient>

  <medication>
    <reference value="#med"/>
  </medication>

  <dosageInstruction>
    <scheduledTiming>
    </scheduledTiming>
    <text value="1 puff every 12 hrs"/>
  </dosageInstruction>
  <dispense>
     <numberOfRepeatsAllowed value="1"/>
     
     <quantity>
        <value value="1"/>
        <unit value=""/>
        <system value="http://unitsofmeasure.org"/>
        <code value=""/>
     </quantity>
     
     <expectedSupplyDuration>
        <value value="30"/>
        <unit value="days"/>
        <system value="http://unitsofmeasure.org"/>
        <code value="d"/>
     </expectedSupplyDuration>
     
  </dispense>
  
</MedicationOrder>

  </resource>
  <request>
    <method value="PUT"/>
    <url value="MedicationOrder/ID345-mp"/>
  </request>
</entry>
<entry>
  <resource>
    
    
<MedicationOrder>
  <id value="ID346-mp"/>
  <text>
    <status value="generated"/>
    <div xmlns="http://www.w3.org/1999/xhtml">
      Advair 100/50 (rxnorm: 896185)
    </div>
  </text>

  <contained>
    <Medication>
      <id value="med"/>
      <name value="Advair 100/50"/>
      <code>
	<coding>
	<system value="http://www.nlm.nih.gov/research/umls/rxnorm"/>
	  <code value="896185"/>
	  <display value="Advair 100/50"/>
	</coding>
      </code>
    </Medication>
  </contained>

  <status value="completed" />
  <patient>
    <reference value="Patient/ID5555003"/>
  </patient>

  <medication>
    <reference value="#med"/>
  </medication>

  <dosageInstruction>
    <scheduledTiming>
    </scheduledTiming>
    <text value="1 puff every 12 hrs for asthma"/>
  </dosageInstruction>
  <dispense>
     <numberOfRepeatsAllowed value="1"/>
     
     <quantity>
        <value value="1"/>
        <unit value=""/>
        <system value="http://unitsofmeasure.org"/>
        <code value=""/>
     </quantity>
     
     <expectedSupplyDuration>
        <value value="30"/>
        <unit value="days"/>
        <system value="http://unitsofmeasure.org"/>
        <code value="d"/>
     </expectedSupplyDuration>
     
  </dispense>
  
</MedicationOrder>

  </resource>
  <request>
    <method value="PUT"/>
    <url value="MedicationOrder/ID346-mp"/>
  </request>
</entry>
<entry>
  <resource>
    
    
<MedicationOrder>
  <id value="ID347-mp"/>
  <text>
    <status value="generated"/>
    <div xmlns="http://www.w3.org/1999/xhtml">
      Zetia Tablet 10mg (rxnorm: 352304)
    </div>
  </text>

  <contained>
    <Medication>
      <id value="med"/>
      <name value="Zetia Tablet 10mg"/>
      <code>
	<coding>
	<system value="http://www.nlm.nih.gov/research/umls/rxnorm"/>
	  <code value="352304"/>
	  <display value="Zetia Tablet 10mg"/>
	</coding>
      </code>
    </Medication>
  </contained>

  <status value="active" />
  <patient>
    <reference value="Patient/ID5555003"/>
  </patient>

  <medication>
    <reference value="#med"/>
  </medication>

  <dosageInstruction>
    <scheduledTiming>
      <repeat>
        <bounds>
          <start value="2014-03-19"/>
        </bounds>
        <frequency value="1"/>
        <duration value="1"/>
        <durationUnits value="d"/>
      </repeat>
      
    </scheduledTiming>
    <doseQuantity>
      <value value="1"/>
      <unit value="{tablet}"/>
      <system value="http://unitsofmeasure.org"/>
      <code value="{tablet}"/>
    </doseQuantity>
    
    <text value="1 tab qd"/>
  </dosageInstruction>
  <dispense>
     <numberOfRepeatsAllowed value="1"/>
     
     <quantity>
        <value value="30"/>
        <unit value="{tablet}"/>
        <system value="http://unitsofmeasure.org"/>
        <code value="{tablet}"/>
     </quantity>
     
     <expectedSupplyDuration>
        <value value="30"/>
        <unit value="days"/>
        <system value="http://unitsofmeasure.org"/>
        <code value="d"/>
     </expectedSupplyDuration>
     
  </dispense>
  
</MedicationOrder>

  </resource>
  <request>
    <method value="PUT"/>
    <url value="MedicationOrder/ID347-mp"/>
  </request>
</entry>
<entry>
  <resource>
    
    
<MedicationOrder>
  <id value="ID348-mp"/>
  <text>
    <status value="generated"/>
    <div xmlns="http://www.w3.org/1999/xhtml">
      Crestor Tablet 10mg (rxnorm: 859749)
    </div>
  </text>

  <contained>
    <Medication>
      <id value="med"/>
      <name value="Crestor Tablet 10mg"/>
      <code>
	<coding>
	<system value="http://www.nlm.nih.gov/research/umls/rxnorm"/>
	  <code value="859749"/>
	  <display value="Crestor Tablet 10mg"/>
	</coding>
      </code>
    </Medication>
  </contained>

  <status value="completed" />
  <patient>
    <reference value="Patient/ID5555003"/>
  </patient>

  <medication>
    <reference value="#med"/>
  </medication>

  <dosageInstruction>
    <scheduledTiming>
      <repeat>
        <bounds>
          <start value="2014-02-01"/>
          <end value="2014-03-19"/>
          
        </bounds>
        <frequency value="1"/>
        <duration value="1"/>
        <durationUnits value="d"/>
      </repeat>
      
    </scheduledTiming>
    <doseQuantity>
      <value value="1"/>
      <unit value="{tablet}"/>
      <system value="http://unitsofmeasure.org"/>
      <code value="{tablet}"/>
    </doseQuantity>
    
    <text value="1 tab qhs"/>
  </dosageInstruction>
  <dispense>
     <numberOfRepeatsAllowed value="1"/>
     
     <quantity>
        <value value="30"/>
        <unit value="{tablet}"/>
        <system value="http://unitsofmeasure.org"/>
        <code value="{tablet}"/>
     </quantity>
     
     <expectedSupplyDuration>
        <value value="30"/>
        <unit value="days"/>
        <system value="http://unitsofmeasure.org"/>
        <code value="d"/>
     </expectedSupplyDuration>
     
  </dispense>
  
</MedicationOrder>

  </resource>
  <request>
    <method value="PUT"/>
    <url value="MedicationOrder/ID348-mp"/>
  </request>
</entry>
<entry>
  <resource>
    
    
<MedicationOrder>
  <id value="ID349-mp"/>
  <text>
    <status value="generated"/>
    <div xmlns="http://www.w3.org/1999/xhtml">
      Fish Oil Capsule 1000mg (rxnorm: 577208)
    </div>
  </text>

  <contained>
    <Medication>
      <id value="med"/>
      <name value="Fish Oil Capsule 1000mg"/>
      <code>
	<coding>
	<system value="http://www.nlm.nih.gov/research/umls/rxnorm"/>
	  <code value="577208"/>
	  <display value="Fish Oil Capsule 1000mg"/>
	</coding>
      </code>
    </Medication>
  </contained>

  <status value="active" />
  <patient>
    <reference value="Patient/ID5555003"/>
  </patient>

  <medication>
    <reference value="#med"/>
  </medication>

  <dosageInstruction>
    <scheduledTiming>
      <repeat>
        <bounds>
          <start value="2012-04-12"/>
        </bounds>
        <frequency value="1"/>
        <duration value="1"/>
        <durationUnits value="d"/>
      </repeat>
      
    </scheduledTiming>
    <doseQuantity>
      <value value="2"/>
      <unit value="{tablet}"/>
      <system value="http://unitsofmeasure.org"/>
      <code value="{tablet}"/>
    </doseQuantity>
    
    <text value="2 caps qd"/>
  </dosageInstruction>
  <dispense>
     <numberOfRepeatsAllowed value="1"/>
     
     <quantity>
        <value value="60"/>
        <unit value="{tablet}"/>
        <system value="http://unitsofmeasure.org"/>
        <code value="{tablet}"/>
     </quantity>
     
     <expectedSupplyDuration>
        <value value="30"/>
        <unit value="days"/>
        <system value="http://unitsofmeasure.org"/>
        <code value="d"/>
     </expectedSupplyDuration>
     
  </dispense>
  
</MedicationOrder>

  </resource>
  <request>
    <method value="PUT"/>
    <url value="MedicationOrder/ID349-mp"/>
  </request>
</entry>
<entry>
  <resource>
    
    
<MedicationOrder>
  <id value="ID350-mp"/>
  <text>
    <status value="generated"/>
    <div xmlns="http://www.w3.org/1999/xhtml">
      Metamucil Sugar-Free (rxnorm: 880853)
    </div>
  </text>

  <contained>
    <Medication>
      <id value="med"/>
      <name value="Metamucil Sugar-Free"/>
      <code>
	<coding>
	<system value="http://www.nlm.nih.gov/research/umls/rxnorm"/>
	  <code value="880853"/>
	  <display value="Metamucil Sugar-Free"/>
	</coding>
      </code>
    </Medication>
  </contained>

  <status value="active" />
  <patient>
    <reference value="Patient/ID5555003"/>
  </patient>

  <medication>
    <reference value="#med"/>
  </medication>

  <dosageInstruction>
    <scheduledTiming>
      <repeat>
        <bounds>
          <start value="2011-09-11"/>
        </bounds>
        <frequency value="3"/>
        <duration value="1"/>
        <durationUnits value="d"/>
      </repeat>
      
    </scheduledTiming>
    <doseQuantity>
      <value value="1"/>
      <unit value="tsp"/>
      <system value="http://unitsofmeasure.org"/>
      <code value="tsp"/>
    </doseQuantity>
    
    <text value="1 tsp. tid"/>
  </dosageInstruction>
  <dispense>
     <numberOfRepeatsAllowed value="1"/>
     
     <quantity>
        <value value="1"/>
        <unit value="tsp"/>
        <system value="http://unitsofmeasure.org"/>
        <code value="tsp"/>
     </quantity>
     
     <expectedSupplyDuration>
        <value value="30"/>
        <unit value="days"/>
        <system value="http://unitsofmeasure.org"/>
        <code value="d"/>
     </expectedSupplyDuration>
     
  </dispense>
  
</MedicationOrder>

  </resource>
  <request>
    <method value="PUT"/>
    <url value="MedicationOrder/ID350-mp"/>
  </request>
</entry>
<entry>
  <resource>
    
    
<MedicationOrder>
  <id value="ID351-mp"/>
  <text>
    <status value="generated"/>
    <div xmlns="http://www.w3.org/1999/xhtml">
      Vitamin D3 Capsule 5000 iu (rxnorm: 240029)
    </div>
  </text>

  <contained>
    <Medication>
      <id value="med"/>
      <name value="Vitamin D3 Capsule 5000 iu"/>
      <code>
	<coding>
	<system value="http://www.nlm.nih.gov/research/umls/rxnorm"/>
	  <code value="240029"/>
	  <display value="Vitamin D3 Capsule 5000 iu"/>
	</coding>
      </code>
    </Medication>
  </contained>

  <status value="active" />
  <patient>
    <reference value="Patient/ID5555003"/>
  </patient>

  <medication>
    <reference value="#med"/>
  </medication>

  <dosageInstruction>
    <scheduledTiming>
      <repeat>
        <bounds>
          <start value="2015-01-03"/>
        </bounds>
        <frequency value="1"/>
        <duration value="1"/>
        <durationUnits value="d"/>
      </repeat>
      
    </scheduledTiming>
    <doseQuantity>
      <value value="1"/>
      <unit value="{tablet}"/>
      <system value="http://unitsofmeasure.org"/>
      <code value="{tablet}"/>
    </doseQuantity>
    
    <text value="1 cap qd"/>
  </dosageInstruction>
  <dispense>
     <numberOfRepeatsAllowed value="1"/>
     
     <quantity>
        <value value="30"/>
        <unit value="{tablet}"/>
        <system value="http://unitsofmeasure.org"/>
        <code value="{tablet}"/>
     </quantity>
     
     <expectedSupplyDuration>
        <value value="30"/>
        <unit value="days"/>
        <system value="http://unitsofmeasure.org"/>
        <code value="d"/>
     </expectedSupplyDuration>
     
  </dispense>
  
</MedicationOrder>

  </resource>
  <request>
    <method value="PUT"/>
    <url value="MedicationOrder/ID351-mp"/>
  </request>
</entry>
<entry>
  <resource>
    
    
<MedicationOrder>
  <id value="ID352-mp"/>
  <text>
    <status value="generated"/>
    <div xmlns="http://www.w3.org/1999/xhtml">
      Ergocalciferol Capsule 50,000 iu (rxnorm: 1367410)
    </div>
  </text>

  <contained>
    <Medication>
      <id value="med"/>
      <name value="Ergocalciferol Capsule 50,000 iu"/>
      <code>
	<coding>
	<system value="http://www.nlm.nih.gov/research/umls/rxnorm"/>
	  <code value="1367410"/>
	  <display value="Ergocalciferol Capsule 50,000 iu"/>
	</coding>
      </code>
    </Medication>
  </contained>

  <status value="completed" />
  <patient>
    <reference value="Patient/ID5555003"/>
  </patient>

  <medication>
    <reference value="#med"/>
  </medication>

  <dosageInstruction>
    <scheduledTiming>
      <repeat>
        <bounds>
          <start value="2014-09-05"/>
          <end value="2014-12-23"/>
          
        </bounds>
        <frequency value="1"/>
        <duration value="1"/>
        <durationUnits value="wk"/>
      </repeat>
      
    </scheduledTiming>
    <doseQuantity>
      <value value="1"/>
      <unit value="{tablet}"/>
      <system value="http://unitsofmeasure.org"/>
      <code value="{tablet}"/>
    </doseQuantity>
    
    <text value="1 cap once a week"/>
  </dosageInstruction>
  <dispense>
     <numberOfRepeatsAllowed value="1"/>
     
     <quantity>
        <value value="12"/>
        <unit value="{tablet}"/>
        <system value="http://unitsofmeasure.org"/>
        <code value="{tablet}"/>
     </quantity>
     
     <expectedSupplyDuration>
        <value value="84"/>
        <unit value="days"/>
        <system value="http://unitsofmeasure.org"/>
        <code value="d"/>
     </expectedSupplyDuration>
     
  </dispense>
  
</MedicationOrder>

  </resource>
  <request>
    <method value="PUT"/>
    <url value="MedicationOrder/ID352-mp"/>
  </request>
</entry>

</Bundle>
