<?xml version="1.0" encoding="UTF-8"?>
<Bundle xmlns="http://hl7.org/fhir">
    <type value="transaction"/>

  <entry>
  <resource>
    
    
  <Patient>
    <id value="731673"/>
    <text>
      <status value="generated"/>
      <div xmlns="http://www.w3.org/1999/xhtml">
        <p>Sarah Graham</p>
      </div>
    </text>
    <identifier>
      <use value="usual"/>
      <type>
        <coding>
          <system value="http://hl7.org/fhir/v2/0203"/>
          <code value="MR"/>
          <display value="Medical record number"/>
        </coding>
        <text value="Medical record number"/>
      </type>
      <system value="http://hospital.smarthealthit.org"/>
      <value value="731673"/>
    </identifier>
    <name>
      <use value="official"/>
      <family value="Graham"/>
      <given value="Sarah"/>
      <given value="Y."/>
    </name>
    <telecom>
      <system value="phone"/>
      <value value="800-534-9017"/>
      <use value="home"/>
    </telecom>
    <telecom>
      <system value="email"/>
      <value value="sarah.graham@example.com"/>
    </telecom>
    <gender value="female" />
    <birthDate value="1949-09-22" />
    <address>
      <use value="home"/>
      <line value="92 Pine Ave"/>
      <city value="Bixby"/>
      <state value="OK"/>
      <postalCode value="74008"/>
      <country value="USA"/>
    </address>
    <active value="true"/>
  </Patient>
  
  </resource>
  <request>
    <method value="POST"/>
    <url value="Patient/731673"/>
  </request>
</entry>
<entry>
  <resource>
    
    
<MedicationOrder>
  <id value="13"/>
  <text>
    <status value="generated"/>
    <div xmlns="http://www.w3.org/1999/xhtml">
      Cetirizine 10 MG Oral Tablet [Zyrtec] (rxnorm: 210596)
    </div>
  </text>

  <status value="active" />
  <patient>
    <reference value="Patient/731673"/>
  </patient>

  <medicationCodeableConcept>
    <coding>
        <system value="http://www.nlm.nih.gov/research/umls/rxnorm"/>
        <code value="210596"/>
        <display value="Cetirizine 10 MG Oral Tablet [Zyrtec]"/>
    </coding>
    <text value="Cetirizine 10 MG Oral Tablet [Zyrtec]"/>
  </medicationCodeableConcept>

  <dosageInstruction>
    <timing>
      <repeat>
        <boundsPeriod>
          <start value="2004-10-28"/>
        </boundsPeriod>
        <frequency value="1"/>
        <period value="1"/>
        <periodUnits value="d"/>
      </repeat>
      
    </timing>
    <doseQuantity>
      <value value="1"/>
      <unit value="{tablet}"/>
      <system value="http://unitsofmeasure.org"/>
      <code value="{tablet}"/>
    </doseQuantity>
    
    <text value="1 daily"/>
  </dosageInstruction>
  <dispenseRequest>
     <numberOfRepeatsAllowed value="1"/>
     
     <quantity>
        <value value="30"/>
        <unit value="{tablet}"/>
        <system value="http://unitsofmeasure.org"/>
        <code value="{tablet}"/>
     </quantity>
     
     <expectedSupplyDuration>
        <value value="30"/>
        <unit value="days"/>
        <system value="http://unitsofmeasure.org"/>
        <code value="d"/>
     </expectedSupplyDuration>
     
  </dispenseRequest>
  
</MedicationOrder>

  </resource>
  <request>
    <method value="POST"/>
    <url value="MedicationOrder/13"/>
  </request>
</entry>
<entry>
  <resource>
    
    
<MedicationDispense>
  <id value="181"/>
  <!--  insert contents here  -->
   <text>
    <status value="generated"/>
    <div xmlns="http://www.w3.org/1999/xhtml">
      Dispensed 30 tablets = 30 day supply of Cetirizine 10 MG Oral Tablet [Zyrtec]
    </div>
  </text>

  <status value="completed"/>

  <patient>
    <reference value="Patient/731673"/>
  </patient>

  <authorizingPrescription>
    <reference value="MedicationOrder/13"/>
  </authorizingPrescription>

  <quantity>
      <value value="30"/>
      <unit value="tablets"/>
      <system value="http://unitsofmeasure.org"/>
      <code value="{tablets}"/>
  </quantity>

  <daysSupply>
      <value value="30" />
      <unit value="days" />
      <system value="http://unitsofmeasure.org" />
      <code value="d" />
  </daysSupply>

  <medicationCodeableConcept>
    <coding>
        <system value="http://www.nlm.nih.gov/research/umls/rxnorm"/>
        <code value="210596"/>
        <display value="Cetirizine 10 MG Oral Tablet [Zyrtec]"/>
    </coding>
    <text value="Cetirizine 10 MG Oral Tablet [Zyrtec]"/>
  </medicationCodeableConcept>

  <whenHandedOver value="2004-10-28"/>

</MedicationDispense>

  </resource>
  <request>
    <method value="POST"/>
    <url value="MedicationDispense/181"/>
  </request>
</entry>
<entry>
  <resource>
    
    
<MedicationOrder>
  <id value="14"/>
  <text>
    <status value="generated"/>
    <div xmlns="http://www.w3.org/1999/xhtml">
      Levofloxacin 500 MG Oral Tablet [Levaquin] (rxnorm: 211816)
    </div>
  </text>

  <status value="active" />
  <patient>
    <reference value="Patient/731673"/>
  </patient>

  <medicationCodeableConcept>
    <coding>
        <system value="http://www.nlm.nih.gov/research/umls/rxnorm"/>
        <code value="211816"/>
        <display value="Levofloxacin 500 MG Oral Tablet [Levaquin]"/>
    </coding>
    <text value="Levofloxacin 500 MG Oral Tablet [Levaquin]"/>
  </medicationCodeableConcept>

  <dosageInstruction>
    <timing>
      <repeat>
        <boundsPeriod>
          <start value="2004-10-28"/>
        </boundsPeriod>
        <frequency value="1"/>
        <period value="1"/>
        <periodUnits value="d"/>
      </repeat>
      
    </timing>
    <doseQuantity>
      <value value="1"/>
      <unit value="{tablet}"/>
      <system value="http://unitsofmeasure.org"/>
      <code value="{tablet}"/>
    </doseQuantity>
    
    <text value="1 daily"/>
  </dosageInstruction>
  <dispenseRequest>
     <numberOfRepeatsAllowed value="1"/>
     
     <quantity>
        <value value="10"/>
        <unit value="{tablet}"/>
        <system value="http://unitsofmeasure.org"/>
        <code value="{tablet}"/>
     </quantity>
     
     <expectedSupplyDuration>
        <value value="10"/>
        <unit value="days"/>
        <system value="http://unitsofmeasure.org"/>
        <code value="d"/>
     </expectedSupplyDuration>
     
  </dispenseRequest>
  
</MedicationOrder>

  </resource>
  <request>
    <method value="POST"/>
    <url value="MedicationOrder/14"/>
  </request>
</entry>
<entry>
  <resource>
    
    
<MedicationDispense>
  <id value="182"/>
  <!--  insert contents here  -->
   <text>
    <status value="generated"/>
    <div xmlns="http://www.w3.org/1999/xhtml">
      Dispensed 10 tablets = 10 day supply of Levofloxacin 500 MG Oral Tablet [Levaquin]
    </div>
  </text>

  <status value="completed"/>

  <patient>
    <reference value="Patient/731673"/>
  </patient>

  <authorizingPrescription>
    <reference value="MedicationOrder/14"/>
  </authorizingPrescription>

  <quantity>
      <value value="10"/>
      <unit value="tablets"/>
      <system value="http://unitsofmeasure.org"/>
      <code value="{tablets}"/>
  </quantity>

  <daysSupply>
      <value value="10" />
      <unit value="days" />
      <system value="http://unitsofmeasure.org" />
      <code value="d" />
  </daysSupply>

  <medicationCodeableConcept>
    <coding>
        <system value="http://www.nlm.nih.gov/research/umls/rxnorm"/>
        <code value="211816"/>
        <display value="Levofloxacin 500 MG Oral Tablet [Levaquin]"/>
    </coding>
    <text value="Levofloxacin 500 MG Oral Tablet [Levaquin]"/>
  </medicationCodeableConcept>

  <whenHandedOver value="2004-10-28"/>

</MedicationDispense>

  </resource>
  <request>
    <method value="POST"/>
    <url value="MedicationDispense/182"/>
  </request>
</entry>
<entry>
  <resource>
    
    
<MedicationOrder>
  <id value="15"/>
  <text>
    <status value="generated"/>
    <div xmlns="http://www.w3.org/1999/xhtml">
      Promethazine 25 MG Oral Tablet (rxnorm: 312664)
    </div>
  </text>

  <status value="active" />
  <patient>
    <reference value="Patient/731673"/>
  </patient>

  <medicationCodeableConcept>
    <coding>
        <system value="http://www.nlm.nih.gov/research/umls/rxnorm"/>
        <code value="312664"/>
        <display value="Promethazine 25 MG Oral Tablet"/>
    </coding>
    <text value="Promethazine 25 MG Oral Tablet"/>
  </medicationCodeableConcept>

  <dosageInstruction>
    <timing>
      <repeat>
        <boundsPeriod>
          <start value="2004-10-28"/>
        </boundsPeriod>
        <frequency value="4"/>
        <period value="1"/>
        <periodUnits value="d"/>
      </repeat>
      
    </timing>
    <doseQuantity>
      <value value="1"/>
      <unit value="{tablet}"/>
      <system value="http://unitsofmeasure.org"/>
      <code value="{tablet}"/>
    </doseQuantity>
    
    <asNeededBoolean value="true"/>
    
    <text value="1 qid prn nausea"/>
  </dosageInstruction>
  <dispenseRequest>
     <numberOfRepeatsAllowed value="1"/>
     
     <quantity>
        <value value="20"/>
        <unit value="{tablet}"/>
        <system value="http://unitsofmeasure.org"/>
        <code value="{tablet}"/>
     </quantity>
     
     <expectedSupplyDuration>
        <value value="5"/>
        <unit value="days"/>
        <system value="http://unitsofmeasure.org"/>
        <code value="d"/>
     </expectedSupplyDuration>
     
  </dispenseRequest>
  
</MedicationOrder>

  </resource>
  <request>
    <method value="POST"/>
    <url value="MedicationOrder/15"/>
  </request>
</entry>
<entry>
  <resource>
    
    
<MedicationDispense>
  <id value="180"/>
  <!--  insert contents here  -->
   <text>
    <status value="generated"/>
    <div xmlns="http://www.w3.org/1999/xhtml">
      Dispensed 20 tablets = 5 day supply of Promethazine 25 MG Oral Tablet
    </div>
  </text>

  <status value="completed"/>

  <patient>
    <reference value="Patient/731673"/>
  </patient>

  <authorizingPrescription>
    <reference value="MedicationOrder/15"/>
  </authorizingPrescription>

  <quantity>
      <value value="20"/>
      <unit value="tablets"/>
      <system value="http://unitsofmeasure.org"/>
      <code value="{tablets}"/>
  </quantity>

  <daysSupply>
      <value value="5" />
      <unit value="days" />
      <system value="http://unitsofmeasure.org" />
      <code value="d" />
  </daysSupply>

  <medicationCodeableConcept>
    <coding>
        <system value="http://www.nlm.nih.gov/research/umls/rxnorm"/>
        <code value="312664"/>
        <display value="Promethazine 25 MG Oral Tablet"/>
    </coding>
    <text value="Promethazine 25 MG Oral Tablet"/>
  </medicationCodeableConcept>

  <whenHandedOver value="2004-10-28"/>

</MedicationDispense>

  </resource>
  <request>
    <method value="POST"/>
    <url value="MedicationDispense/180"/>
  </request>
</entry>
<entry>
  <resource>
    
    
<MedicationOrder>
  <id value="16"/>
  <text>
    <status value="generated"/>
    <div xmlns="http://www.w3.org/1999/xhtml">
      Trazodone 50 MG Oral Tablet (rxnorm: 856377)
    </div>
  </text>

  <status value="active" />
  <patient>
    <reference value="Patient/731673"/>
  </patient>

  <medicationCodeableConcept>
    <coding>
        <system value="http://www.nlm.nih.gov/research/umls/rxnorm"/>
        <code value="856377"/>
        <display value="Trazodone 50 MG Oral Tablet"/>
    </coding>
    <text value="Trazodone 50 MG Oral Tablet"/>
  </medicationCodeableConcept>

  <dosageInstruction>
    <timing>
      <repeat>
        <boundsPeriod>
          <start value="2004-11-03"/>
        </boundsPeriod>
        <frequency value="1"/>
        <period value="1"/>
        <periodUnits value="d"/>
      </repeat>
      
    </timing>
    <doseQuantity>
      <value value="1"/>
      <unit value="{tablet}"/>
      <system value="http://unitsofmeasure.org"/>
      <code value="{tablet}"/>
    </doseQuantity>
    
    <text value="1 qhs"/>
  </dosageInstruction>
  <dispenseRequest>
     <numberOfRepeatsAllowed value="1"/>
     
     <quantity>
        <value value="30"/>
        <unit value="{tablet}"/>
        <system value="http://unitsofmeasure.org"/>
        <code value="{tablet}"/>
     </quantity>
     
     <expectedSupplyDuration>
        <value value="30"/>
        <unit value="days"/>
        <system value="http://unitsofmeasure.org"/>
        <code value="d"/>
     </expectedSupplyDuration>
     
  </dispenseRequest>
  
</MedicationOrder>

  </resource>
  <request>
    <method value="POST"/>
    <url value="MedicationOrder/16"/>
  </request>
</entry>
<entry>
  <resource>
    
    
<MedicationDispense>
  <id value="138"/>
  <!--  insert contents here  -->
   <text>
    <status value="generated"/>
    <div xmlns="http://www.w3.org/1999/xhtml">
      Dispensed 30 tablets = 30 day supply of Trazodone 50 MG Oral Tablet
    </div>
  </text>

  <status value="completed"/>

  <patient>
    <reference value="Patient/731673"/>
  </patient>

  <authorizingPrescription>
    <reference value="MedicationOrder/16"/>
  </authorizingPrescription>

  <quantity>
      <value value="30"/>
      <unit value="tablets"/>
      <system value="http://unitsofmeasure.org"/>
      <code value="{tablets}"/>
  </quantity>

  <daysSupply>
      <value value="30" />
      <unit value="days" />
      <system value="http://unitsofmeasure.org" />
      <code value="d" />
  </daysSupply>

  <medicationCodeableConcept>
    <coding>
        <system value="http://www.nlm.nih.gov/research/umls/rxnorm"/>
        <code value="856377"/>
        <display value="Trazodone 50 MG Oral Tablet"/>
    </coding>
    <text value="Trazodone 50 MG Oral Tablet"/>
  </medicationCodeableConcept>

  <whenHandedOver value="2005-03-14"/>

</MedicationDispense>

  </resource>
  <request>
    <method value="POST"/>
    <url value="MedicationDispense/138"/>
  </request>
</entry>
<entry>
  <resource>
    
    
<MedicationDispense>
  <id value="153"/>
  <!--  insert contents here  -->
   <text>
    <status value="generated"/>
    <div xmlns="http://www.w3.org/1999/xhtml">
      Dispensed 30 tablets = 30 day supply of Trazodone 50 MG Oral Tablet
    </div>
  </text>

  <status value="completed"/>

  <patient>
    <reference value="Patient/731673"/>
  </patient>

  <authorizingPrescription>
    <reference value="MedicationOrder/16"/>
  </authorizingPrescription>

  <quantity>
      <value value="30"/>
      <unit value="tablets"/>
      <system value="http://unitsofmeasure.org"/>
      <code value="{tablets}"/>
  </quantity>

  <daysSupply>
      <value value="30" />
      <unit value="days" />
      <system value="http://unitsofmeasure.org" />
      <code value="d" />
  </daysSupply>

  <medicationCodeableConcept>
    <coding>
        <system value="http://www.nlm.nih.gov/research/umls/rxnorm"/>
        <code value="856377"/>
        <display value="Trazodone 50 MG Oral Tablet"/>
    </coding>
    <text value="Trazodone 50 MG Oral Tablet"/>
  </medicationCodeableConcept>

  <whenHandedOver value="2006-06-01"/>

</MedicationDispense>

  </resource>
  <request>
    <method value="POST"/>
    <url value="MedicationDispense/153"/>
  </request>
</entry>
<entry>
  <resource>
    
    
<MedicationDispense>
  <id value="151"/>
  <!--  insert contents here  -->
   <text>
    <status value="generated"/>
    <div xmlns="http://www.w3.org/1999/xhtml">
      Dispensed 30 tablets = 30 day supply of Trazodone 50 MG Oral Tablet
    </div>
  </text>

  <status value="completed"/>

  <patient>
    <reference value="Patient/731673"/>
  </patient>

  <authorizingPrescription>
    <reference value="MedicationOrder/16"/>
  </authorizingPrescription>

  <quantity>
      <value value="30"/>
      <unit value="tablets"/>
      <system value="http://unitsofmeasure.org"/>
      <code value="{tablets}"/>
  </quantity>

  <daysSupply>
      <value value="30" />
      <unit value="days" />
      <system value="http://unitsofmeasure.org" />
      <code value="d" />
  </daysSupply>

  <medicationCodeableConcept>
    <coding>
        <system value="http://www.nlm.nih.gov/research/umls/rxnorm"/>
        <code value="856377"/>
        <display value="Trazodone 50 MG Oral Tablet"/>
    </coding>
    <text value="Trazodone 50 MG Oral Tablet"/>
  </medicationCodeableConcept>

  <whenHandedOver value="2006-04-01"/>

</MedicationDispense>

  </resource>
  <request>
    <method value="POST"/>
    <url value="MedicationDispense/151"/>
  </request>
</entry>
<entry>
  <resource>
    
    
<MedicationDispense>
  <id value="149"/>
  <!--  insert contents here  -->
   <text>
    <status value="generated"/>
    <div xmlns="http://www.w3.org/1999/xhtml">
      Dispensed 30 tablets = 30 day supply of Trazodone 50 MG Oral Tablet
    </div>
  </text>

  <status value="completed"/>

  <patient>
    <reference value="Patient/731673"/>
  </patient>

  <authorizingPrescription>
    <reference value="MedicationOrder/16"/>
  </authorizingPrescription>

  <quantity>
      <value value="30"/>
      <unit value="tablets"/>
      <system value="http://unitsofmeasure.org"/>
      <code value="{tablets}"/>
  </quantity>

  <daysSupply>
      <value value="30" />
      <unit value="days" />
      <system value="http://unitsofmeasure.org" />
      <code value="d" />
  </daysSupply>

  <medicationCodeableConcept>
    <coding>
        <system value="http://www.nlm.nih.gov/research/umls/rxnorm"/>
        <code value="856377"/>
        <display value="Trazodone 50 MG Oral Tablet"/>
    </coding>
    <text value="Trazodone 50 MG Oral Tablet"/>
  </medicationCodeableConcept>

  <whenHandedOver value="2006-01-29"/>

</MedicationDispense>

  </resource>
  <request>
    <method value="POST"/>
    <url value="MedicationDispense/149"/>
  </request>
</entry>
<entry>
  <resource>
    
    
<MedicationDispense>
  <id value="142"/>
  <!--  insert contents here  -->
   <text>
    <status value="generated"/>
    <div xmlns="http://www.w3.org/1999/xhtml">
      Dispensed 30 tablets = 30 day supply of Trazodone 50 MG Oral Tablet
    </div>
  </text>

  <status value="completed"/>

  <patient>
    <reference value="Patient/731673"/>
  </patient>

  <authorizingPrescription>
    <reference value="MedicationOrder/16"/>
  </authorizingPrescription>

  <quantity>
      <value value="30"/>
      <unit value="tablets"/>
      <system value="http://unitsofmeasure.org"/>
      <code value="{tablets}"/>
  </quantity>

  <daysSupply>
      <value value="30" />
      <unit value="days" />
      <system value="http://unitsofmeasure.org" />
      <code value="d" />
  </daysSupply>

  <medicationCodeableConcept>
    <coding>
        <system value="http://www.nlm.nih.gov/research/umls/rxnorm"/>
        <code value="856377"/>
        <display value="Trazodone 50 MG Oral Tablet"/>
    </coding>
    <text value="Trazodone 50 MG Oral Tablet"/>
  </medicationCodeableConcept>

  <whenHandedOver value="2005-07-24"/>

</MedicationDispense>

  </resource>
  <request>
    <method value="POST"/>
    <url value="MedicationDispense/142"/>
  </request>
</entry>
<entry>
  <resource>
    
    
<MedicationDispense>
  <id value="147"/>
  <!--  insert contents here  -->
   <text>
    <status value="generated"/>
    <div xmlns="http://www.w3.org/1999/xhtml">
      Dispensed 30 tablets = 30 day supply of Trazodone 50 MG Oral Tablet
    </div>
  </text>

  <status value="completed"/>

  <patient>
    <reference value="Patient/731673"/>
  </patient>

  <authorizingPrescription>
    <reference value="MedicationOrder/16"/>
  </authorizingPrescription>

  <quantity>
      <value value="30"/>
      <unit value="tablets"/>
      <system value="http://unitsofmeasure.org"/>
      <code value="{tablets}"/>
  </quantity>

  <daysSupply>
      <value value="30" />
      <unit value="days" />
      <system value="http://unitsofmeasure.org" />
      <code value="d" />
  </daysSupply>

  <medicationCodeableConcept>
    <coding>
        <system value="http://www.nlm.nih.gov/research/umls/rxnorm"/>
        <code value="856377"/>
        <display value="Trazodone 50 MG Oral Tablet"/>
    </coding>
    <text value="Trazodone 50 MG Oral Tablet"/>
  </medicationCodeableConcept>

  <whenHandedOver value="2005-11-28"/>

</MedicationDispense>

  </resource>
  <request>
    <method value="POST"/>
    <url value="MedicationDispense/147"/>
  </request>
</entry>
<entry>
  <resource>
    
    
<MedicationDispense>
  <id value="148"/>
  <!--  insert contents here  -->
   <text>
    <status value="generated"/>
    <div xmlns="http://www.w3.org/1999/xhtml">
      Dispensed 30 tablets = 30 day supply of Trazodone 50 MG Oral Tablet
    </div>
  </text>

  <status value="completed"/>

  <patient>
    <reference value="Patient/731673"/>
  </patient>

  <authorizingPrescription>
    <reference value="MedicationOrder/16"/>
  </authorizingPrescription>

  <quantity>
      <value value="30"/>
      <unit value="tablets"/>
      <system value="http://unitsofmeasure.org"/>
      <code value="{tablets}"/>
  </quantity>

  <daysSupply>
      <value value="30" />
      <unit value="days" />
      <system value="http://unitsofmeasure.org" />
      <code value="d" />
  </daysSupply>

  <medicationCodeableConcept>
    <coding>
        <system value="http://www.nlm.nih.gov/research/umls/rxnorm"/>
        <code value="856377"/>
        <display value="Trazodone 50 MG Oral Tablet"/>
    </coding>
    <text value="Trazodone 50 MG Oral Tablet"/>
  </medicationCodeableConcept>

  <whenHandedOver value="2005-12-28"/>

</MedicationDispense>

  </resource>
  <request>
    <method value="POST"/>
    <url value="MedicationDispense/148"/>
  </request>
</entry>
<entry>
  <resource>
    
    
<MedicationDispense>
  <id value="136"/>
  <!--  insert contents here  -->
   <text>
    <status value="generated"/>
    <div xmlns="http://www.w3.org/1999/xhtml">
      Dispensed 30 tablets = 30 day supply of Trazodone 50 MG Oral Tablet
    </div>
  </text>

  <status value="completed"/>

  <patient>
    <reference value="Patient/731673"/>
  </patient>

  <authorizingPrescription>
    <reference value="MedicationOrder/16"/>
  </authorizingPrescription>

  <quantity>
      <value value="30"/>
      <unit value="tablets"/>
      <system value="http://unitsofmeasure.org"/>
      <code value="{tablets}"/>
  </quantity>

  <daysSupply>
      <value value="30" />
      <unit value="days" />
      <system value="http://unitsofmeasure.org" />
      <code value="d" />
  </daysSupply>

  <medicationCodeableConcept>
    <coding>
        <system value="http://www.nlm.nih.gov/research/umls/rxnorm"/>
        <code value="856377"/>
        <display value="Trazodone 50 MG Oral Tablet"/>
    </coding>
    <text value="Trazodone 50 MG Oral Tablet"/>
  </medicationCodeableConcept>

  <whenHandedOver value="2005-01-04"/>

</MedicationDispense>

  </resource>
  <request>
    <method value="POST"/>
    <url value="MedicationDispense/136"/>
  </request>
</entry>
<entry>
  <resource>
    
    
<MedicationDispense>
  <id value="143"/>
  <!--  insert contents here  -->
   <text>
    <status value="generated"/>
    <div xmlns="http://www.w3.org/1999/xhtml">
      Dispensed 30 tablets = 30 day supply of Trazodone 50 MG Oral Tablet
    </div>
  </text>

  <status value="completed"/>

  <patient>
    <reference value="Patient/731673"/>
  </patient>

  <authorizingPrescription>
    <reference value="MedicationOrder/16"/>
  </authorizingPrescription>

  <quantity>
      <value value="30"/>
      <unit value="tablets"/>
      <system value="http://unitsofmeasure.org"/>
      <code value="{tablets}"/>
  </quantity>

  <daysSupply>
      <value value="30" />
      <unit value="days" />
      <system value="http://unitsofmeasure.org" />
      <code value="d" />
  </daysSupply>

  <medicationCodeableConcept>
    <coding>
        <system value="http://www.nlm.nih.gov/research/umls/rxnorm"/>
        <code value="856377"/>
        <display value="Trazodone 50 MG Oral Tablet"/>
    </coding>
    <text value="Trazodone 50 MG Oral Tablet"/>
  </medicationCodeableConcept>

  <whenHandedOver value="2005-07-25"/>

</MedicationDispense>

  </resource>
  <request>
    <method value="POST"/>
    <url value="MedicationDispense/143"/>
  </request>
</entry>
<entry>
  <resource>
    
    
<MedicationDispense>
  <id value="134"/>
  <!--  insert contents here  -->
   <text>
    <status value="generated"/>
    <div xmlns="http://www.w3.org/1999/xhtml">
      Dispensed 30 tablets = 30 day supply of Trazodone 50 MG Oral Tablet
    </div>
  </text>

  <status value="completed"/>

  <patient>
    <reference value="Patient/731673"/>
  </patient>

  <authorizingPrescription>
    <reference value="MedicationOrder/16"/>
  </authorizingPrescription>

  <quantity>
      <value value="30"/>
      <unit value="tablets"/>
      <system value="http://unitsofmeasure.org"/>
      <code value="{tablets}"/>
  </quantity>

  <daysSupply>
      <value value="30" />
      <unit value="days" />
      <system value="http://unitsofmeasure.org" />
      <code value="d" />
  </daysSupply>

  <medicationCodeableConcept>
    <coding>
        <system value="http://www.nlm.nih.gov/research/umls/rxnorm"/>
        <code value="856377"/>
        <display value="Trazodone 50 MG Oral Tablet"/>
    </coding>
    <text value="Trazodone 50 MG Oral Tablet"/>
  </medicationCodeableConcept>

  <whenHandedOver value="2004-11-03"/>

</MedicationDispense>

  </resource>
  <request>
    <method value="POST"/>
    <url value="MedicationDispense/134"/>
  </request>
</entry>
<entry>
  <resource>
    
    
<MedicationDispense>
  <id value="140"/>
  <!--  insert contents here  -->
   <text>
    <status value="generated"/>
    <div xmlns="http://www.w3.org/1999/xhtml">
      Dispensed 30 tablets = 30 day supply of Trazodone 50 MG Oral Tablet
    </div>
  </text>

  <status value="completed"/>

  <patient>
    <reference value="Patient/731673"/>
  </patient>

  <authorizingPrescription>
    <reference value="MedicationOrder/16"/>
  </authorizingPrescription>

  <quantity>
      <value value="30"/>
      <unit value="tablets"/>
      <system value="http://unitsofmeasure.org"/>
      <code value="{tablets}"/>
  </quantity>

  <daysSupply>
      <value value="30" />
      <unit value="days" />
      <system value="http://unitsofmeasure.org" />
      <code value="d" />
  </daysSupply>

  <medicationCodeableConcept>
    <coding>
        <system value="http://www.nlm.nih.gov/research/umls/rxnorm"/>
        <code value="856377"/>
        <display value="Trazodone 50 MG Oral Tablet"/>
    </coding>
    <text value="Trazodone 50 MG Oral Tablet"/>
  </medicationCodeableConcept>

  <whenHandedOver value="2005-05-17"/>

</MedicationDispense>

  </resource>
  <request>
    <method value="POST"/>
    <url value="MedicationDispense/140"/>
  </request>
</entry>
<entry>
  <resource>
    
    
<MedicationDispense>
  <id value="145"/>
  <!--  insert contents here  -->
   <text>
    <status value="generated"/>
    <div xmlns="http://www.w3.org/1999/xhtml">
      Dispensed 30 tablets = 30 day supply of Trazodone 50 MG Oral Tablet
    </div>
  </text>

  <status value="completed"/>

  <patient>
    <reference value="Patient/731673"/>
  </patient>

  <authorizingPrescription>
    <reference value="MedicationOrder/16"/>
  </authorizingPrescription>

  <quantity>
      <value value="30"/>
      <unit value="tablets"/>
      <system value="http://unitsofmeasure.org"/>
      <code value="{tablets}"/>
  </quantity>

  <daysSupply>
      <value value="30" />
      <unit value="days" />
      <system value="http://unitsofmeasure.org" />
      <code value="d" />
  </daysSupply>

  <medicationCodeableConcept>
    <coding>
        <system value="http://www.nlm.nih.gov/research/umls/rxnorm"/>
        <code value="856377"/>
        <display value="Trazodone 50 MG Oral Tablet"/>
    </coding>
    <text value="Trazodone 50 MG Oral Tablet"/>
  </medicationCodeableConcept>

  <whenHandedOver value="2005-09-27"/>

</MedicationDispense>

  </resource>
  <request>
    <method value="POST"/>
    <url value="MedicationDispense/145"/>
  </request>
</entry>
<entry>
  <resource>
    
    
<MedicationDispense>
  <id value="144"/>
  <!--  insert contents here  -->
   <text>
    <status value="generated"/>
    <div xmlns="http://www.w3.org/1999/xhtml">
      Dispensed 30 tablets = 30 day supply of Trazodone 50 MG Oral Tablet
    </div>
  </text>

  <status value="completed"/>

  <patient>
    <reference value="Patient/731673"/>
  </patient>

  <authorizingPrescription>
    <reference value="MedicationOrder/16"/>
  </authorizingPrescription>

  <quantity>
      <value value="30"/>
      <unit value="tablets"/>
      <system value="http://unitsofmeasure.org"/>
      <code value="{tablets}"/>
  </quantity>

  <daysSupply>
      <value value="30" />
      <unit value="days" />
      <system value="http://unitsofmeasure.org" />
      <code value="d" />
  </daysSupply>

  <medicationCodeableConcept>
    <coding>
        <system value="http://www.nlm.nih.gov/research/umls/rxnorm"/>
        <code value="856377"/>
        <display value="Trazodone 50 MG Oral Tablet"/>
    </coding>
    <text value="Trazodone 50 MG Oral Tablet"/>
  </medicationCodeableConcept>

  <whenHandedOver value="2005-08-26"/>

</MedicationDispense>

  </resource>
  <request>
    <method value="POST"/>
    <url value="MedicationDispense/144"/>
  </request>
</entry>
<entry>
  <resource>
    
    
<MedicationDispense>
  <id value="152"/>
  <!--  insert contents here  -->
   <text>
    <status value="generated"/>
    <div xmlns="http://www.w3.org/1999/xhtml">
      Dispensed 30 tablets = 30 day supply of Trazodone 50 MG Oral Tablet
    </div>
  </text>

  <status value="completed"/>

  <patient>
    <reference value="Patient/731673"/>
  </patient>

  <authorizingPrescription>
    <reference value="MedicationOrder/16"/>
  </authorizingPrescription>

  <quantity>
      <value value="30"/>
      <unit value="tablets"/>
      <system value="http://unitsofmeasure.org"/>
      <code value="{tablets}"/>
  </quantity>

  <daysSupply>
      <value value="30" />
      <unit value="days" />
      <system value="http://unitsofmeasure.org" />
      <code value="d" />
  </daysSupply>

  <medicationCodeableConcept>
    <coding>
        <system value="http://www.nlm.nih.gov/research/umls/rxnorm"/>
        <code value="856377"/>
        <display value="Trazodone 50 MG Oral Tablet"/>
    </coding>
    <text value="Trazodone 50 MG Oral Tablet"/>
  </medicationCodeableConcept>

  <whenHandedOver value="2006-04-28"/>

</MedicationDispense>

  </resource>
  <request>
    <method value="POST"/>
    <url value="MedicationDispense/152"/>
  </request>
</entry>
<entry>
  <resource>
    
    
<MedicationDispense>
  <id value="139"/>
  <!--  insert contents here  -->
   <text>
    <status value="generated"/>
    <div xmlns="http://www.w3.org/1999/xhtml">
      Dispensed 30 tablets = 30 day supply of Trazodone 50 MG Oral Tablet
    </div>
  </text>

  <status value="completed"/>

  <patient>
    <reference value="Patient/731673"/>
  </patient>

  <authorizingPrescription>
    <reference value="MedicationOrder/16"/>
  </authorizingPrescription>

  <quantity>
      <value value="30"/>
      <unit value="tablets"/>
      <system value="http://unitsofmeasure.org"/>
      <code value="{tablets}"/>
  </quantity>

  <daysSupply>
      <value value="30" />
      <unit value="days" />
      <system value="http://unitsofmeasure.org" />
      <code value="d" />
  </daysSupply>

  <medicationCodeableConcept>
    <coding>
        <system value="http://www.nlm.nih.gov/research/umls/rxnorm"/>
        <code value="856377"/>
        <display value="Trazodone 50 MG Oral Tablet"/>
    </coding>
    <text value="Trazodone 50 MG Oral Tablet"/>
  </medicationCodeableConcept>

  <whenHandedOver value="2005-04-16"/>

</MedicationDispense>

  </resource>
  <request>
    <method value="POST"/>
    <url value="MedicationDispense/139"/>
  </request>
</entry>
<entry>
  <resource>
    
    
<MedicationDispense>
  <id value="146"/>
  <!--  insert contents here  -->
   <text>
    <status value="generated"/>
    <div xmlns="http://www.w3.org/1999/xhtml">
      Dispensed 30 tablets = 30 day supply of Trazodone 50 MG Oral Tablet
    </div>
  </text>

  <status value="completed"/>

  <patient>
    <reference value="Patient/731673"/>
  </patient>

  <authorizingPrescription>
    <reference value="MedicationOrder/16"/>
  </authorizingPrescription>

  <quantity>
      <value value="30"/>
      <unit value="tablets"/>
      <system value="http://unitsofmeasure.org"/>
      <code value="{tablets}"/>
  </quantity>

  <daysSupply>
      <value value="30" />
      <unit value="days" />
      <system value="http://unitsofmeasure.org" />
      <code value="d" />
  </daysSupply>

  <medicationCodeableConcept>
    <coding>
        <system value="http://www.nlm.nih.gov/research/umls/rxnorm"/>
        <code value="856377"/>
        <display value="Trazodone 50 MG Oral Tablet"/>
    </coding>
    <text value="Trazodone 50 MG Oral Tablet"/>
  </medicationCodeableConcept>

  <whenHandedOver value="2005-10-28"/>

</MedicationDispense>

  </resource>
  <request>
    <method value="POST"/>
    <url value="MedicationDispense/146"/>
  </request>
</entry>
<entry>
  <resource>
    
    
<MedicationDispense>
  <id value="141"/>
  <!--  insert contents here  -->
   <text>
    <status value="generated"/>
    <div xmlns="http://www.w3.org/1999/xhtml">
      Dispensed 30 tablets = 30 day supply of Trazodone 50 MG Oral Tablet
    </div>
  </text>

  <status value="completed"/>

  <patient>
    <reference value="Patient/731673"/>
  </patient>

  <authorizingPrescription>
    <reference value="MedicationOrder/16"/>
  </authorizingPrescription>

  <quantity>
      <value value="30"/>
      <unit value="tablets"/>
      <system value="http://unitsofmeasure.org"/>
      <code value="{tablets}"/>
  </quantity>

  <daysSupply>
      <value value="30" />
      <unit value="days" />
      <system value="http://unitsofmeasure.org" />
      <code value="d" />
  </daysSupply>

  <medicationCodeableConcept>
    <coding>
        <system value="http://www.nlm.nih.gov/research/umls/rxnorm"/>
        <code value="856377"/>
        <display value="Trazodone 50 MG Oral Tablet"/>
    </coding>
    <text value="Trazodone 50 MG Oral Tablet"/>
  </medicationCodeableConcept>

  <whenHandedOver value="2005-06-24"/>

</MedicationDispense>

  </resource>
  <request>
    <method value="POST"/>
    <url value="MedicationDispense/141"/>
  </request>
</entry>
<entry>
  <resource>
    
    
<MedicationDispense>
  <id value="135"/>
  <!--  insert contents here  -->
   <text>
    <status value="generated"/>
    <div xmlns="http://www.w3.org/1999/xhtml">
      Dispensed 30 tablets = 30 day supply of Trazodone 50 MG Oral Tablet
    </div>
  </text>

  <status value="completed"/>

  <patient>
    <reference value="Patient/731673"/>
  </patient>

  <authorizingPrescription>
    <reference value="MedicationOrder/16"/>
  </authorizingPrescription>

  <quantity>
      <value value="30"/>
      <unit value="tablets"/>
      <system value="http://unitsofmeasure.org"/>
      <code value="{tablets}"/>
  </quantity>

  <daysSupply>
      <value value="30" />
      <unit value="days" />
      <system value="http://unitsofmeasure.org" />
      <code value="d" />
  </daysSupply>

  <medicationCodeableConcept>
    <coding>
        <system value="http://www.nlm.nih.gov/research/umls/rxnorm"/>
        <code value="856377"/>
        <display value="Trazodone 50 MG Oral Tablet"/>
    </coding>
    <text value="Trazodone 50 MG Oral Tablet"/>
  </medicationCodeableConcept>

  <whenHandedOver value="2004-12-01"/>

</MedicationDispense>

  </resource>
  <request>
    <method value="POST"/>
    <url value="MedicationDispense/135"/>
  </request>
</entry>
<entry>
  <resource>
    
    
<MedicationDispense>
  <id value="137"/>
  <!--  insert contents here  -->
   <text>
    <status value="generated"/>
    <div xmlns="http://www.w3.org/1999/xhtml">
      Dispensed 30 tablets = 30 day supply of Trazodone 50 MG Oral Tablet
    </div>
  </text>

  <status value="completed"/>

  <patient>
    <reference value="Patient/731673"/>
  </patient>

  <authorizingPrescription>
    <reference value="MedicationOrder/16"/>
  </authorizingPrescription>

  <quantity>
      <value value="30"/>
      <unit value="tablets"/>
      <system value="http://unitsofmeasure.org"/>
      <code value="{tablets}"/>
  </quantity>

  <daysSupply>
      <value value="30" />
      <unit value="days" />
      <system value="http://unitsofmeasure.org" />
      <code value="d" />
  </daysSupply>

  <medicationCodeableConcept>
    <coding>
        <system value="http://www.nlm.nih.gov/research/umls/rxnorm"/>
        <code value="856377"/>
        <display value="Trazodone 50 MG Oral Tablet"/>
    </coding>
    <text value="Trazodone 50 MG Oral Tablet"/>
  </medicationCodeableConcept>

  <whenHandedOver value="2005-02-04"/>

</MedicationDispense>

  </resource>
  <request>
    <method value="POST"/>
    <url value="MedicationDispense/137"/>
  </request>
</entry>
<entry>
  <resource>
    
    
<MedicationDispense>
  <id value="150"/>
  <!--  insert contents here  -->
   <text>
    <status value="generated"/>
    <div xmlns="http://www.w3.org/1999/xhtml">
      Dispensed 30 tablets = 30 day supply of Trazodone 50 MG Oral Tablet
    </div>
  </text>

  <status value="completed"/>

  <patient>
    <reference value="Patient/731673"/>
  </patient>

  <authorizingPrescription>
    <reference value="MedicationOrder/16"/>
  </authorizingPrescription>

  <quantity>
      <value value="30"/>
      <unit value="tablets"/>
      <system value="http://unitsofmeasure.org"/>
      <code value="{tablets}"/>
  </quantity>

  <daysSupply>
      <value value="30" />
      <unit value="days" />
      <system value="http://unitsofmeasure.org" />
      <code value="d" />
  </daysSupply>

  <medicationCodeableConcept>
    <coding>
        <system value="http://www.nlm.nih.gov/research/umls/rxnorm"/>
        <code value="856377"/>
        <display value="Trazodone 50 MG Oral Tablet"/>
    </coding>
    <text value="Trazodone 50 MG Oral Tablet"/>
  </medicationCodeableConcept>

  <whenHandedOver value="2006-02-28"/>

</MedicationDispense>

  </resource>
  <request>
    <method value="POST"/>
    <url value="MedicationDispense/150"/>
  </request>
</entry>
<entry>
  <resource>
    
    
<MedicationOrder>
  <id value="17"/>
  <text>
    <status value="generated"/>
    <div xmlns="http://www.w3.org/1999/xhtml">
      montelukast 10 MG Oral Tablet [Singulair] (rxnorm: 153892)
    </div>
  </text>

  <status value="active" />
  <patient>
    <reference value="Patient/731673"/>
  </patient>

  <medicationCodeableConcept>
    <coding>
        <system value="http://www.nlm.nih.gov/research/umls/rxnorm"/>
        <code value="153892"/>
        <display value="montelukast 10 MG Oral Tablet [Singulair]"/>
    </coding>
    <text value="montelukast 10 MG Oral Tablet [Singulair]"/>
  </medicationCodeableConcept>

  <dosageInstruction>
    <timing>
      <repeat>
        <boundsPeriod>
          <start value="2004-11-08"/>
        </boundsPeriod>
        <frequency value="1"/>
        <period value="1"/>
        <periodUnits value="d"/>
      </repeat>
      
    </timing>
    <doseQuantity>
      <value value="1"/>
      <unit value="{tablet}"/>
      <system value="http://unitsofmeasure.org"/>
      <code value="{tablet}"/>
    </doseQuantity>
    
    <text value="1 daily"/>
  </dosageInstruction>
  <dispenseRequest>
     <numberOfRepeatsAllowed value="1"/>
     
     <quantity>
        <value value="30"/>
        <unit value="{tablet}"/>
        <system value="http://unitsofmeasure.org"/>
        <code value="{tablet}"/>
     </quantity>
     
     <expectedSupplyDuration>
        <value value="30"/>
        <unit value="days"/>
        <system value="http://unitsofmeasure.org"/>
        <code value="d"/>
     </expectedSupplyDuration>
     
  </dispenseRequest>
  
</MedicationOrder>

  </resource>
  <request>
    <method value="POST"/>
    <url value="MedicationOrder/17"/>
  </request>
</entry>
<entry>
  <resource>
    
    
<MedicationDispense>
  <id value="169"/>
  <!--  insert contents here  -->
   <text>
    <status value="generated"/>
    <div xmlns="http://www.w3.org/1999/xhtml">
      Dispensed 30 tablets = 30 day supply of montelukast 10 MG Oral Tablet [Singulair]
    </div>
  </text>

  <status value="completed"/>

  <patient>
    <reference value="Patient/731673"/>
  </patient>

  <authorizingPrescription>
    <reference value="MedicationOrder/17"/>
  </authorizingPrescription>

  <quantity>
      <value value="30"/>
      <unit value="tablets"/>
      <system value="http://unitsofmeasure.org"/>
      <code value="{tablets}"/>
  </quantity>

  <daysSupply>
      <value value="30" />
      <unit value="days" />
      <system value="http://unitsofmeasure.org" />
      <code value="d" />
  </daysSupply>

  <medicationCodeableConcept>
    <coding>
        <system value="http://www.nlm.nih.gov/research/umls/rxnorm"/>
        <code value="153892"/>
        <display value="montelukast 10 MG Oral Tablet [Singulair]"/>
    </coding>
    <text value="montelukast 10 MG Oral Tablet [Singulair]"/>
  </medicationCodeableConcept>

  <whenHandedOver value="2004-11-08"/>

</MedicationDispense>

  </resource>
  <request>
    <method value="POST"/>
    <url value="MedicationDispense/169"/>
  </request>
</entry>
<entry>
  <resource>
    
    
<MedicationOrder>
  <id value="18"/>
  <text>
    <status value="generated"/>
    <div xmlns="http://www.w3.org/1999/xhtml">
      valdecoxib 20 MG Oral Tablet [Bextra] (rxnorm: 352063)
    </div>
  </text>

  <status value="active" />
  <patient>
    <reference value="Patient/731673"/>
  </patient>

  <medicationCodeableConcept>
    <coding>
        <system value="http://www.nlm.nih.gov/research/umls/rxnorm"/>
        <code value="352063"/>
        <display value="valdecoxib 20 MG Oral Tablet [Bextra]"/>
    </coding>
    <text value="valdecoxib 20 MG Oral Tablet [Bextra]"/>
  </medicationCodeableConcept>

  <dosageInstruction>
    <timing>
      <repeat>
        <boundsPeriod>
          <start value="2004-11-08"/>
        </boundsPeriod>
        <frequency value="1"/>
        <period value="1"/>
        <periodUnits value="d"/>
      </repeat>
      
    </timing>
    <doseQuantity>
      <value value="1"/>
      <unit value="{tablet}"/>
      <system value="http://unitsofmeasure.org"/>
      <code value="{tablet}"/>
    </doseQuantity>
    
    <asNeededBoolean value="true"/>
    
    <text value="1 daily prn pain"/>
  </dosageInstruction>
  <dispenseRequest>
     <numberOfRepeatsAllowed value="1"/>
     
     <quantity>
        <value value="30"/>
        <unit value="{tablet}"/>
        <system value="http://unitsofmeasure.org"/>
        <code value="{tablet}"/>
     </quantity>
     
     <expectedSupplyDuration>
        <value value="30"/>
        <unit value="days"/>
        <system value="http://unitsofmeasure.org"/>
        <code value="d"/>
     </expectedSupplyDuration>
     
  </dispenseRequest>
  
</MedicationOrder>

  </resource>
  <request>
    <method value="POST"/>
    <url value="MedicationOrder/18"/>
  </request>
</entry>
<entry>
  <resource>
    
    
<MedicationDispense>
  <id value="185"/>
  <!--  insert contents here  -->
   <text>
    <status value="generated"/>
    <div xmlns="http://www.w3.org/1999/xhtml">
      Dispensed 30 tablets = 30 day supply of valdecoxib 20 MG Oral Tablet [Bextra]
    </div>
  </text>

  <status value="completed"/>

  <patient>
    <reference value="Patient/731673"/>
  </patient>

  <authorizingPrescription>
    <reference value="MedicationOrder/18"/>
  </authorizingPrescription>

  <quantity>
      <value value="30"/>
      <unit value="tablets"/>
      <system value="http://unitsofmeasure.org"/>
      <code value="{tablets}"/>
  </quantity>

  <daysSupply>
      <value value="30" />
      <unit value="days" />
      <system value="http://unitsofmeasure.org" />
      <code value="d" />
  </daysSupply>

  <medicationCodeableConcept>
    <coding>
        <system value="http://www.nlm.nih.gov/research/umls/rxnorm"/>
        <code value="352063"/>
        <display value="valdecoxib 20 MG Oral Tablet [Bextra]"/>
    </coding>
    <text value="valdecoxib 20 MG Oral Tablet [Bextra]"/>
  </medicationCodeableConcept>

  <whenHandedOver value="2004-11-08"/>

</MedicationDispense>

  </resource>
  <request>
    <method value="POST"/>
    <url value="MedicationDispense/185"/>
  </request>
</entry>
<entry>
  <resource>
    
    
<MedicationDispense>
  <id value="186"/>
  <!--  insert contents here  -->
   <text>
    <status value="generated"/>
    <div xmlns="http://www.w3.org/1999/xhtml">
      Dispensed 30 tablets = 30 day supply of valdecoxib 20 MG Oral Tablet [Bextra]
    </div>
  </text>

  <status value="completed"/>

  <patient>
    <reference value="Patient/731673"/>
  </patient>

  <authorizingPrescription>
    <reference value="MedicationOrder/18"/>
  </authorizingPrescription>

  <quantity>
      <value value="30"/>
      <unit value="tablets"/>
      <system value="http://unitsofmeasure.org"/>
      <code value="{tablets}"/>
  </quantity>

  <daysSupply>
      <value value="30" />
      <unit value="days" />
      <system value="http://unitsofmeasure.org" />
      <code value="d" />
  </daysSupply>

  <medicationCodeableConcept>
    <coding>
        <system value="http://www.nlm.nih.gov/research/umls/rxnorm"/>
        <code value="352063"/>
        <display value="valdecoxib 20 MG Oral Tablet [Bextra]"/>
    </coding>
    <text value="valdecoxib 20 MG Oral Tablet [Bextra]"/>
  </medicationCodeableConcept>

  <whenHandedOver value="2005-01-06"/>

</MedicationDispense>

  </resource>
  <request>
    <method value="POST"/>
    <url value="MedicationDispense/186"/>
  </request>
</entry>
<entry>
  <resource>
    
    
<MedicationOrder>
  <id value="19"/>
  <text>
    <status value="generated"/>
    <div xmlns="http://www.w3.org/1999/xhtml">
      Hydrochlorothiazide 25 MG / Triamterene 37.5 MG Oral Tablet (rxnorm: 310812)
    </div>
  </text>

  <status value="active" />
  <patient>
    <reference value="Patient/731673"/>
  </patient>

  <medicationCodeableConcept>
    <coding>
        <system value="http://www.nlm.nih.gov/research/umls/rxnorm"/>
        <code value="310812"/>
        <display value="Hydrochlorothiazide 25 MG / Triamterene 37.5 MG Oral Tablet"/>
    </coding>
    <text value="Hydrochlorothiazide 25 MG / Triamterene 37.5 MG Oral Tablet"/>
  </medicationCodeableConcept>

  <dosageInstruction>
    <timing>
      <repeat>
        <boundsPeriod>
          <start value="2004-11-18"/>
        </boundsPeriod>
        <frequency value="1"/>
        <period value="1"/>
        <periodUnits value="d"/>
      </repeat>
      
    </timing>
    <doseQuantity>
      <value value="1"/>
      <unit value="{tablet}"/>
      <system value="http://unitsofmeasure.org"/>
      <code value="{tablet}"/>
    </doseQuantity>
    
    <text value="1 daily"/>
  </dosageInstruction>
  <dispenseRequest>
     <numberOfRepeatsAllowed value="1"/>
     
     <quantity>
        <value value="30"/>
        <unit value="{tablet}"/>
        <system value="http://unitsofmeasure.org"/>
        <code value="{tablet}"/>
     </quantity>
     
     <expectedSupplyDuration>
        <value value="30"/>
        <unit value="days"/>
        <system value="http://unitsofmeasure.org"/>
        <code value="d"/>
     </expectedSupplyDuration>
     
  </dispenseRequest>
  
</MedicationOrder>

  </resource>
  <request>
    <method value="POST"/>
    <url value="MedicationOrder/19"/>
  </request>
</entry>
<entry>
  <resource>
    
    
<MedicationDispense>
  <id value="167"/>
  <!--  insert contents here  -->
   <text>
    <status value="generated"/>
    <div xmlns="http://www.w3.org/1999/xhtml">
      Dispensed 30 tablets = 30 day supply of Hydrochlorothiazide 25 MG / Triamterene 37.5 MG Oral Tablet
    </div>
  </text>

  <status value="completed"/>

  <patient>
    <reference value="Patient/731673"/>
  </patient>

  <authorizingPrescription>
    <reference value="MedicationOrder/19"/>
  </authorizingPrescription>

  <quantity>
      <value value="30"/>
      <unit value="tablets"/>
      <system value="http://unitsofmeasure.org"/>
      <code value="{tablets}"/>
  </quantity>

  <daysSupply>
      <value value="30" />
      <unit value="days" />
      <system value="http://unitsofmeasure.org" />
      <code value="d" />
  </daysSupply>

  <medicationCodeableConcept>
    <coding>
        <system value="http://www.nlm.nih.gov/research/umls/rxnorm"/>
        <code value="310812"/>
        <display value="Hydrochlorothiazide 25 MG / Triamterene 37.5 MG Oral Tablet"/>
    </coding>
    <text value="Hydrochlorothiazide 25 MG / Triamterene 37.5 MG Oral Tablet"/>
  </medicationCodeableConcept>

  <whenHandedOver value="2006-06-01"/>

</MedicationDispense>

  </resource>
  <request>
    <method value="POST"/>
    <url value="MedicationDispense/167"/>
  </request>
</entry>
<entry>
  <resource>
    
    
<MedicationDispense>
  <id value="160"/>
  <!--  insert contents here  -->
   <text>
    <status value="generated"/>
    <div xmlns="http://www.w3.org/1999/xhtml">
      Dispensed 30 tablets = 30 day supply of Hydrochlorothiazide 25 MG / Triamterene 37.5 MG Oral Tablet
    </div>
  </text>

  <status value="completed"/>

  <patient>
    <reference value="Patient/731673"/>
  </patient>

  <authorizingPrescription>
    <reference value="MedicationOrder/19"/>
  </authorizingPrescription>

  <quantity>
      <value value="30"/>
      <unit value="tablets"/>
      <system value="http://unitsofmeasure.org"/>
      <code value="{tablets}"/>
  </quantity>

  <daysSupply>
      <value value="30" />
      <unit value="days" />
      <system value="http://unitsofmeasure.org" />
      <code value="d" />
  </daysSupply>

  <medicationCodeableConcept>
    <coding>
        <system value="http://www.nlm.nih.gov/research/umls/rxnorm"/>
        <code value="310812"/>
        <display value="Hydrochlorothiazide 25 MG / Triamterene 37.5 MG Oral Tablet"/>
    </coding>
    <text value="Hydrochlorothiazide 25 MG / Triamterene 37.5 MG Oral Tablet"/>
  </medicationCodeableConcept>

  <whenHandedOver value="2004-11-18"/>

</MedicationDispense>

  </resource>
  <request>
    <method value="POST"/>
    <url value="MedicationDispense/160"/>
  </request>
</entry>
<entry>
  <resource>
    
    
<MedicationDispense>
  <id value="165"/>
  <!--  insert contents here  -->
   <text>
    <status value="generated"/>
    <div xmlns="http://www.w3.org/1999/xhtml">
      Dispensed 30 tablets = 30 day supply of Hydrochlorothiazide 25 MG / Triamterene 37.5 MG Oral Tablet
    </div>
  </text>

  <status value="completed"/>

  <patient>
    <reference value="Patient/731673"/>
  </patient>

  <authorizingPrescription>
    <reference value="MedicationOrder/19"/>
  </authorizingPrescription>

  <quantity>
      <value value="30"/>
      <unit value="tablets"/>
      <system value="http://unitsofmeasure.org"/>
      <code value="{tablets}"/>
  </quantity>

  <daysSupply>
      <value value="30" />
      <unit value="days" />
      <system value="http://unitsofmeasure.org" />
      <code value="d" />
  </daysSupply>

  <medicationCodeableConcept>
    <coding>
        <system value="http://www.nlm.nih.gov/research/umls/rxnorm"/>
        <code value="310812"/>
        <display value="Hydrochlorothiazide 25 MG / Triamterene 37.5 MG Oral Tablet"/>
    </coding>
    <text value="Hydrochlorothiazide 25 MG / Triamterene 37.5 MG Oral Tablet"/>
  </medicationCodeableConcept>

  <whenHandedOver value="2005-11-28"/>

</MedicationDispense>

  </resource>
  <request>
    <method value="POST"/>
    <url value="MedicationDispense/165"/>
  </request>
</entry>
<entry>
  <resource>
    
    
<MedicationDispense>
  <id value="164"/>
  <!--  insert contents here  -->
   <text>
    <status value="generated"/>
    <div xmlns="http://www.w3.org/1999/xhtml">
      Dispensed 30 tablets = 30 day supply of Hydrochlorothiazide 25 MG / Triamterene 37.5 MG Oral Tablet
    </div>
  </text>

  <status value="completed"/>

  <patient>
    <reference value="Patient/731673"/>
  </patient>

  <authorizingPrescription>
    <reference value="MedicationOrder/19"/>
  </authorizingPrescription>

  <quantity>
      <value value="30"/>
      <unit value="tablets"/>
      <system value="http://unitsofmeasure.org"/>
      <code value="{tablets}"/>
  </quantity>

  <daysSupply>
      <value value="30" />
      <unit value="days" />
      <system value="http://unitsofmeasure.org" />
      <code value="d" />
  </daysSupply>

  <medicationCodeableConcept>
    <coding>
        <system value="http://www.nlm.nih.gov/research/umls/rxnorm"/>
        <code value="310812"/>
        <display value="Hydrochlorothiazide 25 MG / Triamterene 37.5 MG Oral Tablet"/>
    </coding>
    <text value="Hydrochlorothiazide 25 MG / Triamterene 37.5 MG Oral Tablet"/>
  </medicationCodeableConcept>

  <whenHandedOver value="2005-09-23"/>

</MedicationDispense>

  </resource>
  <request>
    <method value="POST"/>
    <url value="MedicationDispense/164"/>
  </request>
</entry>
<entry>
  <resource>
    
    
<MedicationDispense>
  <id value="163"/>
  <!--  insert contents here  -->
   <text>
    <status value="generated"/>
    <div xmlns="http://www.w3.org/1999/xhtml">
      Dispensed 30 tablets = 30 day supply of Hydrochlorothiazide 25 MG / Triamterene 37.5 MG Oral Tablet
    </div>
  </text>

  <status value="completed"/>

  <patient>
    <reference value="Patient/731673"/>
  </patient>

  <authorizingPrescription>
    <reference value="MedicationOrder/19"/>
  </authorizingPrescription>

  <quantity>
      <value value="30"/>
      <unit value="tablets"/>
      <system value="http://unitsofmeasure.org"/>
      <code value="{tablets}"/>
  </quantity>

  <daysSupply>
      <value value="30" />
      <unit value="days" />
      <system value="http://unitsofmeasure.org" />
      <code value="d" />
  </daysSupply>

  <medicationCodeableConcept>
    <coding>
        <system value="http://www.nlm.nih.gov/research/umls/rxnorm"/>
        <code value="310812"/>
        <display value="Hydrochlorothiazide 25 MG / Triamterene 37.5 MG Oral Tablet"/>
    </coding>
    <text value="Hydrochlorothiazide 25 MG / Triamterene 37.5 MG Oral Tablet"/>
  </medicationCodeableConcept>

  <whenHandedOver value="2005-06-24"/>

</MedicationDispense>

  </resource>
  <request>
    <method value="POST"/>
    <url value="MedicationDispense/163"/>
  </request>
</entry>
<entry>
  <resource>
    
    
<MedicationDispense>
  <id value="161"/>
  <!--  insert contents here  -->
   <text>
    <status value="generated"/>
    <div xmlns="http://www.w3.org/1999/xhtml">
      Dispensed 30 tablets = 30 day supply of Hydrochlorothiazide 25 MG / Triamterene 37.5 MG Oral Tablet
    </div>
  </text>

  <status value="completed"/>

  <patient>
    <reference value="Patient/731673"/>
  </patient>

  <authorizingPrescription>
    <reference value="MedicationOrder/19"/>
  </authorizingPrescription>

  <quantity>
      <value value="30"/>
      <unit value="tablets"/>
      <system value="http://unitsofmeasure.org"/>
      <code value="{tablets}"/>
  </quantity>

  <daysSupply>
      <value value="30" />
      <unit value="days" />
      <system value="http://unitsofmeasure.org" />
      <code value="d" />
  </daysSupply>

  <medicationCodeableConcept>
    <coding>
        <system value="http://www.nlm.nih.gov/research/umls/rxnorm"/>
        <code value="310812"/>
        <display value="Hydrochlorothiazide 25 MG / Triamterene 37.5 MG Oral Tablet"/>
    </coding>
    <text value="Hydrochlorothiazide 25 MG / Triamterene 37.5 MG Oral Tablet"/>
  </medicationCodeableConcept>

  <whenHandedOver value="2005-02-04"/>

</MedicationDispense>

  </resource>
  <request>
    <method value="POST"/>
    <url value="MedicationDispense/161"/>
  </request>
</entry>
<entry>
  <resource>
    
    
<MedicationDispense>
  <id value="162"/>
  <!--  insert contents here  -->
   <text>
    <status value="generated"/>
    <div xmlns="http://www.w3.org/1999/xhtml">
      Dispensed 30 tablets = 30 day supply of Hydrochlorothiazide 25 MG / Triamterene 37.5 MG Oral Tablet
    </div>
  </text>

  <status value="completed"/>

  <patient>
    <reference value="Patient/731673"/>
  </patient>

  <authorizingPrescription>
    <reference value="MedicationOrder/19"/>
  </authorizingPrescription>

  <quantity>
      <value value="30"/>
      <unit value="tablets"/>
      <system value="http://unitsofmeasure.org"/>
      <code value="{tablets}"/>
  </quantity>

  <daysSupply>
      <value value="30" />
      <unit value="days" />
      <system value="http://unitsofmeasure.org" />
      <code value="d" />
  </daysSupply>

  <medicationCodeableConcept>
    <coding>
        <system value="http://www.nlm.nih.gov/research/umls/rxnorm"/>
        <code value="310812"/>
        <display value="Hydrochlorothiazide 25 MG / Triamterene 37.5 MG Oral Tablet"/>
    </coding>
    <text value="Hydrochlorothiazide 25 MG / Triamterene 37.5 MG Oral Tablet"/>
  </medicationCodeableConcept>

  <whenHandedOver value="2005-04-16"/>

</MedicationDispense>

  </resource>
  <request>
    <method value="POST"/>
    <url value="MedicationDispense/162"/>
  </request>
</entry>
<entry>
  <resource>
    
    
<MedicationDispense>
  <id value="166"/>
  <!--  insert contents here  -->
   <text>
    <status value="generated"/>
    <div xmlns="http://www.w3.org/1999/xhtml">
      Dispensed 30 tablets = 30 day supply of Hydrochlorothiazide 25 MG / Triamterene 37.5 MG Oral Tablet
    </div>
  </text>

  <status value="completed"/>

  <patient>
    <reference value="Patient/731673"/>
  </patient>

  <authorizingPrescription>
    <reference value="MedicationOrder/19"/>
  </authorizingPrescription>

  <quantity>
      <value value="30"/>
      <unit value="tablets"/>
      <system value="http://unitsofmeasure.org"/>
      <code value="{tablets}"/>
  </quantity>

  <daysSupply>
      <value value="30" />
      <unit value="days" />
      <system value="http://unitsofmeasure.org" />
      <code value="d" />
  </daysSupply>

  <medicationCodeableConcept>
    <coding>
        <system value="http://www.nlm.nih.gov/research/umls/rxnorm"/>
        <code value="310812"/>
        <display value="Hydrochlorothiazide 25 MG / Triamterene 37.5 MG Oral Tablet"/>
    </coding>
    <text value="Hydrochlorothiazide 25 MG / Triamterene 37.5 MG Oral Tablet"/>
  </medicationCodeableConcept>

  <whenHandedOver value="2006-03-03"/>

</MedicationDispense>

  </resource>
  <request>
    <method value="POST"/>
    <url value="MedicationDispense/166"/>
  </request>
</entry>
<entry>
  <resource>
    
    
<MedicationOrder>
  <id value="20"/>
  <text>
    <status value="generated"/>
    <div xmlns="http://www.w3.org/1999/xhtml">
      Lisinopril 20 MG Oral Tablet (rxnorm: 314077)
    </div>
  </text>

  <status value="active" />
  <patient>
    <reference value="Patient/731673"/>
  </patient>

  <medicationCodeableConcept>
    <coding>
        <system value="http://www.nlm.nih.gov/research/umls/rxnorm"/>
        <code value="314077"/>
        <display value="Lisinopril 20 MG Oral Tablet"/>
    </coding>
    <text value="Lisinopril 20 MG Oral Tablet"/>
  </medicationCodeableConcept>

  <dosageInstruction>
    <timing>
      <repeat>
        <boundsPeriod>
          <start value="2004-11-18"/>
        </boundsPeriod>
        <frequency value="1"/>
        <period value="1"/>
        <periodUnits value="d"/>
      </repeat>
      
    </timing>
    <doseQuantity>
      <value value="1"/>
      <unit value="{tablet}"/>
      <system value="http://unitsofmeasure.org"/>
      <code value="{tablet}"/>
    </doseQuantity>
    
    <text value="1 daily"/>
  </dosageInstruction>
  <dispenseRequest>
     <numberOfRepeatsAllowed value="1"/>
     
     <quantity>
        <value value="30"/>
        <unit value="{tablet}"/>
        <system value="http://unitsofmeasure.org"/>
        <code value="{tablet}"/>
     </quantity>
     
     <expectedSupplyDuration>
        <value value="30"/>
        <unit value="days"/>
        <system value="http://unitsofmeasure.org"/>
        <code value="d"/>
     </expectedSupplyDuration>
     
  </dispenseRequest>
  
</MedicationOrder>

  </resource>
  <request>
    <method value="POST"/>
    <url value="MedicationOrder/20"/>
  </request>
</entry>
<entry>
  <resource>
    
    
<MedicationDispense>
  <id value="172"/>
  <!--  insert contents here  -->
   <text>
    <status value="generated"/>
    <div xmlns="http://www.w3.org/1999/xhtml">
      Dispensed 30 tablets = 30 day supply of Lisinopril 20 MG Oral Tablet
    </div>
  </text>

  <status value="completed"/>

  <patient>
    <reference value="Patient/731673"/>
  </patient>

  <authorizingPrescription>
    <reference value="MedicationOrder/20"/>
  </authorizingPrescription>

  <quantity>
      <value value="30"/>
      <unit value="tablets"/>
      <system value="http://unitsofmeasure.org"/>
      <code value="{tablets}"/>
  </quantity>

  <daysSupply>
      <value value="30" />
      <unit value="days" />
      <system value="http://unitsofmeasure.org" />
      <code value="d" />
  </daysSupply>

  <medicationCodeableConcept>
    <coding>
        <system value="http://www.nlm.nih.gov/research/umls/rxnorm"/>
        <code value="314077"/>
        <display value="Lisinopril 20 MG Oral Tablet"/>
    </coding>
    <text value="Lisinopril 20 MG Oral Tablet"/>
  </medicationCodeableConcept>

  <whenHandedOver value="2004-11-18"/>

</MedicationDispense>

  </resource>
  <request>
    <method value="POST"/>
    <url value="MedicationDispense/172"/>
  </request>
</entry>
<entry>
  <resource>
    
    
<MedicationDispense>
  <id value="176"/>
  <!--  insert contents here  -->
   <text>
    <status value="generated"/>
    <div xmlns="http://www.w3.org/1999/xhtml">
      Dispensed 30 tablets = 30 day supply of Lisinopril 20 MG Oral Tablet
    </div>
  </text>

  <status value="completed"/>

  <patient>
    <reference value="Patient/731673"/>
  </patient>

  <authorizingPrescription>
    <reference value="MedicationOrder/20"/>
  </authorizingPrescription>

  <quantity>
      <value value="30"/>
      <unit value="tablets"/>
      <system value="http://unitsofmeasure.org"/>
      <code value="{tablets}"/>
  </quantity>

  <daysSupply>
      <value value="30" />
      <unit value="days" />
      <system value="http://unitsofmeasure.org" />
      <code value="d" />
  </daysSupply>

  <medicationCodeableConcept>
    <coding>
        <system value="http://www.nlm.nih.gov/research/umls/rxnorm"/>
        <code value="314077"/>
        <display value="Lisinopril 20 MG Oral Tablet"/>
    </coding>
    <text value="Lisinopril 20 MG Oral Tablet"/>
  </medicationCodeableConcept>

  <whenHandedOver value="2005-09-23"/>

</MedicationDispense>

  </resource>
  <request>
    <method value="POST"/>
    <url value="MedicationDispense/176"/>
  </request>
</entry>
<entry>
  <resource>
    
    
<MedicationDispense>
  <id value="178"/>
  <!--  insert contents here  -->
   <text>
    <status value="generated"/>
    <div xmlns="http://www.w3.org/1999/xhtml">
      Dispensed 30 tablets = 30 day supply of Lisinopril 20 MG Oral Tablet
    </div>
  </text>

  <status value="completed"/>

  <patient>
    <reference value="Patient/731673"/>
  </patient>

  <authorizingPrescription>
    <reference value="MedicationOrder/20"/>
  </authorizingPrescription>

  <quantity>
      <value value="30"/>
      <unit value="tablets"/>
      <system value="http://unitsofmeasure.org"/>
      <code value="{tablets}"/>
  </quantity>

  <daysSupply>
      <value value="30" />
      <unit value="days" />
      <system value="http://unitsofmeasure.org" />
      <code value="d" />
  </daysSupply>

  <medicationCodeableConcept>
    <coding>
        <system value="http://www.nlm.nih.gov/research/umls/rxnorm"/>
        <code value="314077"/>
        <display value="Lisinopril 20 MG Oral Tablet"/>
    </coding>
    <text value="Lisinopril 20 MG Oral Tablet"/>
  </medicationCodeableConcept>

  <whenHandedOver value="2006-03-03"/>

</MedicationDispense>

  </resource>
  <request>
    <method value="POST"/>
    <url value="MedicationDispense/178"/>
  </request>
</entry>
<entry>
  <resource>
    
    
<MedicationDispense>
  <id value="177"/>
  <!--  insert contents here  -->
   <text>
    <status value="generated"/>
    <div xmlns="http://www.w3.org/1999/xhtml">
      Dispensed 30 tablets = 30 day supply of Lisinopril 20 MG Oral Tablet
    </div>
  </text>

  <status value="completed"/>

  <patient>
    <reference value="Patient/731673"/>
  </patient>

  <authorizingPrescription>
    <reference value="MedicationOrder/20"/>
  </authorizingPrescription>

  <quantity>
      <value value="30"/>
      <unit value="tablets"/>
      <system value="http://unitsofmeasure.org"/>
      <code value="{tablets}"/>
  </quantity>

  <daysSupply>
      <value value="30" />
      <unit value="days" />
      <system value="http://unitsofmeasure.org" />
      <code value="d" />
  </daysSupply>

  <medicationCodeableConcept>
    <coding>
        <system value="http://www.nlm.nih.gov/research/umls/rxnorm"/>
        <code value="314077"/>
        <display value="Lisinopril 20 MG Oral Tablet"/>
    </coding>
    <text value="Lisinopril 20 MG Oral Tablet"/>
  </medicationCodeableConcept>

  <whenHandedOver value="2005-11-28"/>

</MedicationDispense>

  </resource>
  <request>
    <method value="POST"/>
    <url value="MedicationDispense/177"/>
  </request>
</entry>
<entry>
  <resource>
    
    
<MedicationDispense>
  <id value="173"/>
  <!--  insert contents here  -->
   <text>
    <status value="generated"/>
    <div xmlns="http://www.w3.org/1999/xhtml">
      Dispensed 30 tablets = 30 day supply of Lisinopril 20 MG Oral Tablet
    </div>
  </text>

  <status value="completed"/>

  <patient>
    <reference value="Patient/731673"/>
  </patient>

  <authorizingPrescription>
    <reference value="MedicationOrder/20"/>
  </authorizingPrescription>

  <quantity>
      <value value="30"/>
      <unit value="tablets"/>
      <system value="http://unitsofmeasure.org"/>
      <code value="{tablets}"/>
  </quantity>

  <daysSupply>
      <value value="30" />
      <unit value="days" />
      <system value="http://unitsofmeasure.org" />
      <code value="d" />
  </daysSupply>

  <medicationCodeableConcept>
    <coding>
        <system value="http://www.nlm.nih.gov/research/umls/rxnorm"/>
        <code value="314077"/>
        <display value="Lisinopril 20 MG Oral Tablet"/>
    </coding>
    <text value="Lisinopril 20 MG Oral Tablet"/>
  </medicationCodeableConcept>

  <whenHandedOver value="2005-02-04"/>

</MedicationDispense>

  </resource>
  <request>
    <method value="POST"/>
    <url value="MedicationDispense/173"/>
  </request>
</entry>
<entry>
  <resource>
    
    
<MedicationDispense>
  <id value="174"/>
  <!--  insert contents here  -->
   <text>
    <status value="generated"/>
    <div xmlns="http://www.w3.org/1999/xhtml">
      Dispensed 30 tablets = 30 day supply of Lisinopril 20 MG Oral Tablet
    </div>
  </text>

  <status value="completed"/>

  <patient>
    <reference value="Patient/731673"/>
  </patient>

  <authorizingPrescription>
    <reference value="MedicationOrder/20"/>
  </authorizingPrescription>

  <quantity>
      <value value="30"/>
      <unit value="tablets"/>
      <system value="http://unitsofmeasure.org"/>
      <code value="{tablets}"/>
  </quantity>

  <daysSupply>
      <value value="30" />
      <unit value="days" />
      <system value="http://unitsofmeasure.org" />
      <code value="d" />
  </daysSupply>

  <medicationCodeableConcept>
    <coding>
        <system value="http://www.nlm.nih.gov/research/umls/rxnorm"/>
        <code value="314077"/>
        <display value="Lisinopril 20 MG Oral Tablet"/>
    </coding>
    <text value="Lisinopril 20 MG Oral Tablet"/>
  </medicationCodeableConcept>

  <whenHandedOver value="2005-04-16"/>

</MedicationDispense>

  </resource>
  <request>
    <method value="POST"/>
    <url value="MedicationDispense/174"/>
  </request>
</entry>
<entry>
  <resource>
    
    
<MedicationDispense>
  <id value="175"/>
  <!--  insert contents here  -->
   <text>
    <status value="generated"/>
    <div xmlns="http://www.w3.org/1999/xhtml">
      Dispensed 30 tablets = 30 day supply of Lisinopril 20 MG Oral Tablet
    </div>
  </text>

  <status value="completed"/>

  <patient>
    <reference value="Patient/731673"/>
  </patient>

  <authorizingPrescription>
    <reference value="MedicationOrder/20"/>
  </authorizingPrescription>

  <quantity>
      <value value="30"/>
      <unit value="tablets"/>
      <system value="http://unitsofmeasure.org"/>
      <code value="{tablets}"/>
  </quantity>

  <daysSupply>
      <value value="30" />
      <unit value="days" />
      <system value="http://unitsofmeasure.org" />
      <code value="d" />
  </daysSupply>

  <medicationCodeableConcept>
    <coding>
        <system value="http://www.nlm.nih.gov/research/umls/rxnorm"/>
        <code value="314077"/>
        <display value="Lisinopril 20 MG Oral Tablet"/>
    </coding>
    <text value="Lisinopril 20 MG Oral Tablet"/>
  </medicationCodeableConcept>

  <whenHandedOver value="2005-06-24"/>

</MedicationDispense>

  </resource>
  <request>
    <method value="POST"/>
    <url value="MedicationDispense/175"/>
  </request>
</entry>
<entry>
  <resource>
    
    
<MedicationDispense>
  <id value="179"/>
  <!--  insert contents here  -->
   <text>
    <status value="generated"/>
    <div xmlns="http://www.w3.org/1999/xhtml">
      Dispensed 30 tablets = 30 day supply of Lisinopril 20 MG Oral Tablet
    </div>
  </text>

  <status value="completed"/>

  <patient>
    <reference value="Patient/731673"/>
  </patient>

  <authorizingPrescription>
    <reference value="MedicationOrder/20"/>
  </authorizingPrescription>

  <quantity>
      <value value="30"/>
      <unit value="tablets"/>
      <system value="http://unitsofmeasure.org"/>
      <code value="{tablets}"/>
  </quantity>

  <daysSupply>
      <value value="30" />
      <unit value="days" />
      <system value="http://unitsofmeasure.org" />
      <code value="d" />
  </daysSupply>

  <medicationCodeableConcept>
    <coding>
        <system value="http://www.nlm.nih.gov/research/umls/rxnorm"/>
        <code value="314077"/>
        <display value="Lisinopril 20 MG Oral Tablet"/>
    </coding>
    <text value="Lisinopril 20 MG Oral Tablet"/>
  </medicationCodeableConcept>

  <whenHandedOver value="2006-06-01"/>

</MedicationDispense>

  </resource>
  <request>
    <method value="POST"/>
    <url value="MedicationDispense/179"/>
  </request>
</entry>
<entry>
  <resource>
    
    
<MedicationOrder>
  <id value="21"/>
  <text>
    <status value="generated"/>
    <div xmlns="http://www.w3.org/1999/xhtml">
      duloxetine 60 MG Enteric Coated Capsule [Cymbalta] (rxnorm: 615186)
    </div>
  </text>

  <status value="active" />
  <patient>
    <reference value="Patient/731673"/>
  </patient>

  <medicationCodeableConcept>
    <coding>
        <system value="http://www.nlm.nih.gov/research/umls/rxnorm"/>
        <code value="615186"/>
        <display value="duloxetine 60 MG Enteric Coated Capsule [Cymbalta]"/>
    </coding>
    <text value="duloxetine 60 MG Enteric Coated Capsule [Cymbalta]"/>
  </medicationCodeableConcept>

  <dosageInstruction>
    <timing>
      <repeat>
        <boundsPeriod>
          <start value="2005-02-17"/>
        </boundsPeriod>
        <frequency value="1"/>
        <period value="1"/>
        <periodUnits value="d"/>
      </repeat>
      
    </timing>
    <doseQuantity>
      <value value="1"/>
      <unit value="{tablet}"/>
      <system value="http://unitsofmeasure.org"/>
      <code value="{tablet}"/>
    </doseQuantity>
    
    <text value="1 daily"/>
  </dosageInstruction>
  <dispenseRequest>
     <numberOfRepeatsAllowed value="1"/>
     
     <quantity>
        <value value="30"/>
        <unit value="{tablet}"/>
        <system value="http://unitsofmeasure.org"/>
        <code value="{tablet}"/>
     </quantity>
     
     <expectedSupplyDuration>
        <value value="30"/>
        <unit value="days"/>
        <system value="http://unitsofmeasure.org"/>
        <code value="d"/>
     </expectedSupplyDuration>
     
  </dispenseRequest>
  
</MedicationOrder>

  </resource>
  <request>
    <method value="POST"/>
    <url value="MedicationOrder/21"/>
  </request>
</entry>
<entry>
  <resource>
    
    
<MedicationDispense>
  <id value="154"/>
  <!--  insert contents here  -->
   <text>
    <status value="generated"/>
    <div xmlns="http://www.w3.org/1999/xhtml">
      Dispensed 30 tablets = 30 day supply of duloxetine 60 MG Enteric Coated Capsule [Cymbalta]
    </div>
  </text>

  <status value="completed"/>

  <patient>
    <reference value="Patient/731673"/>
  </patient>

  <authorizingPrescription>
    <reference value="MedicationOrder/21"/>
  </authorizingPrescription>

  <quantity>
      <value value="30"/>
      <unit value="tablets"/>
      <system value="http://unitsofmeasure.org"/>
      <code value="{tablets}"/>
  </quantity>

  <daysSupply>
      <value value="30" />
      <unit value="days" />
      <system value="http://unitsofmeasure.org" />
      <code value="d" />
  </daysSupply>

  <medicationCodeableConcept>
    <coding>
        <system value="http://www.nlm.nih.gov/research/umls/rxnorm"/>
        <code value="615186"/>
        <display value="duloxetine 60 MG Enteric Coated Capsule [Cymbalta]"/>
    </coding>
    <text value="duloxetine 60 MG Enteric Coated Capsule [Cymbalta]"/>
  </medicationCodeableConcept>

  <whenHandedOver value="2005-02-17"/>

</MedicationDispense>

  </resource>
  <request>
    <method value="POST"/>
    <url value="MedicationDispense/154"/>
  </request>
</entry>
<entry>
  <resource>
    
    
<MedicationDispense>
  <id value="156"/>
  <!--  insert contents here  -->
   <text>
    <status value="generated"/>
    <div xmlns="http://www.w3.org/1999/xhtml">
      Dispensed 30 tablets = 30 day supply of duloxetine 60 MG Enteric Coated Capsule [Cymbalta]
    </div>
  </text>

  <status value="completed"/>

  <patient>
    <reference value="Patient/731673"/>
  </patient>

  <authorizingPrescription>
    <reference value="MedicationOrder/21"/>
  </authorizingPrescription>

  <quantity>
      <value value="30"/>
      <unit value="tablets"/>
      <system value="http://unitsofmeasure.org"/>
      <code value="{tablets}"/>
  </quantity>

  <daysSupply>
      <value value="30" />
      <unit value="days" />
      <system value="http://unitsofmeasure.org" />
      <code value="d" />
  </daysSupply>

  <medicationCodeableConcept>
    <coding>
        <system value="http://www.nlm.nih.gov/research/umls/rxnorm"/>
        <code value="615186"/>
        <display value="duloxetine 60 MG Enteric Coated Capsule [Cymbalta]"/>
    </coding>
    <text value="duloxetine 60 MG Enteric Coated Capsule [Cymbalta]"/>
  </medicationCodeableConcept>

  <whenHandedOver value="2005-04-24"/>

</MedicationDispense>

  </resource>
  <request>
    <method value="POST"/>
    <url value="MedicationDispense/156"/>
  </request>
</entry>
<entry>
  <resource>
    
    
<MedicationDispense>
  <id value="157"/>
  <!--  insert contents here  -->
   <text>
    <status value="generated"/>
    <div xmlns="http://www.w3.org/1999/xhtml">
      Dispensed 30 tablets = 30 day supply of duloxetine 60 MG Enteric Coated Capsule [Cymbalta]
    </div>
  </text>

  <status value="completed"/>

  <patient>
    <reference value="Patient/731673"/>
  </patient>

  <authorizingPrescription>
    <reference value="MedicationOrder/21"/>
  </authorizingPrescription>

  <quantity>
      <value value="30"/>
      <unit value="tablets"/>
      <system value="http://unitsofmeasure.org"/>
      <code value="{tablets}"/>
  </quantity>

  <daysSupply>
      <value value="30" />
      <unit value="days" />
      <system value="http://unitsofmeasure.org" />
      <code value="d" />
  </daysSupply>

  <medicationCodeableConcept>
    <coding>
        <system value="http://www.nlm.nih.gov/research/umls/rxnorm"/>
        <code value="615186"/>
        <display value="duloxetine 60 MG Enteric Coated Capsule [Cymbalta]"/>
    </coding>
    <text value="duloxetine 60 MG Enteric Coated Capsule [Cymbalta]"/>
  </medicationCodeableConcept>

  <whenHandedOver value="2005-07-17"/>

</MedicationDispense>

  </resource>
  <request>
    <method value="POST"/>
    <url value="MedicationDispense/157"/>
  </request>
</entry>
<entry>
  <resource>
    
    
<MedicationDispense>
  <id value="158"/>
  <!--  insert contents here  -->
   <text>
    <status value="generated"/>
    <div xmlns="http://www.w3.org/1999/xhtml">
      Dispensed 30 tablets = 30 day supply of duloxetine 60 MG Enteric Coated Capsule [Cymbalta]
    </div>
  </text>

  <status value="completed"/>

  <patient>
    <reference value="Patient/731673"/>
  </patient>

  <authorizingPrescription>
    <reference value="MedicationOrder/21"/>
  </authorizingPrescription>

  <quantity>
      <value value="30"/>
      <unit value="tablets"/>
      <system value="http://unitsofmeasure.org"/>
      <code value="{tablets}"/>
  </quantity>

  <daysSupply>
      <value value="30" />
      <unit value="days" />
      <system value="http://unitsofmeasure.org" />
      <code value="d" />
  </daysSupply>

  <medicationCodeableConcept>
    <coding>
        <system value="http://www.nlm.nih.gov/research/umls/rxnorm"/>
        <code value="615186"/>
        <display value="duloxetine 60 MG Enteric Coated Capsule [Cymbalta]"/>
    </coding>
    <text value="duloxetine 60 MG Enteric Coated Capsule [Cymbalta]"/>
  </medicationCodeableConcept>

  <whenHandedOver value="2006-02-16"/>

</MedicationDispense>

  </resource>
  <request>
    <method value="POST"/>
    <url value="MedicationDispense/158"/>
  </request>
</entry>
<entry>
  <resource>
    
    
<MedicationDispense>
  <id value="155"/>
  <!--  insert contents here  -->
   <text>
    <status value="generated"/>
    <div xmlns="http://www.w3.org/1999/xhtml">
      Dispensed 30 tablets = 30 day supply of duloxetine 60 MG Enteric Coated Capsule [Cymbalta]
    </div>
  </text>

  <status value="completed"/>

  <patient>
    <reference value="Patient/731673"/>
  </patient>

  <authorizingPrescription>
    <reference value="MedicationOrder/21"/>
  </authorizingPrescription>

  <quantity>
      <value value="30"/>
      <unit value="tablets"/>
      <system value="http://unitsofmeasure.org"/>
      <code value="{tablets}"/>
  </quantity>

  <daysSupply>
      <value value="30" />
      <unit value="days" />
      <system value="http://unitsofmeasure.org" />
      <code value="d" />
  </daysSupply>

  <medicationCodeableConcept>
    <coding>
        <system value="http://www.nlm.nih.gov/research/umls/rxnorm"/>
        <code value="615186"/>
        <display value="duloxetine 60 MG Enteric Coated Capsule [Cymbalta]"/>
    </coding>
    <text value="duloxetine 60 MG Enteric Coated Capsule [Cymbalta]"/>
  </medicationCodeableConcept>

  <whenHandedOver value="2005-04-22"/>

</MedicationDispense>

  </resource>
  <request>
    <method value="POST"/>
    <url value="MedicationDispense/155"/>
  </request>
</entry>
<entry>
  <resource>
    
    
<MedicationOrder>
  <id value="22"/>
  <text>
    <status value="generated"/>
    <div xmlns="http://www.w3.org/1999/xhtml">
      Acetaminophen 650 MG / propoxyphene napsylate 100 MG Oral Tablet (rxnorm: 828576)
    </div>
  </text>

  <status value="active" />
  <patient>
    <reference value="Patient/731673"/>
  </patient>

  <medicationCodeableConcept>
    <coding>
        <system value="http://www.nlm.nih.gov/research/umls/rxnorm"/>
        <code value="828576"/>
        <display value="Acetaminophen 650 MG / propoxyphene napsylate 100 MG Oral Tablet"/>
    </coding>
    <text value="Acetaminophen 650 MG / propoxyphene napsylate 100 MG Oral Tablet"/>
  </medicationCodeableConcept>

  <dosageInstruction>
    <timing>
      <repeat>
        <boundsPeriod>
          <start value="2005-02-17"/>
        </boundsPeriod>
        <frequency value="4"/>
        <period value="1"/>
        <periodUnits value="d"/>
      </repeat>
      
    </timing>
    <doseQuantity>
      <value value="1"/>
      <unit value="{tablet}"/>
      <system value="http://unitsofmeasure.org"/>
      <code value="{tablet}"/>
    </doseQuantity>
    
    <asNeededBoolean value="true"/>
    
    <text value="1 q6h prn pain"/>
  </dosageInstruction>
  <dispenseRequest>
     <numberOfRepeatsAllowed value="1"/>
     
     <quantity>
        <value value="40"/>
        <unit value="{tablet}"/>
        <system value="http://unitsofmeasure.org"/>
        <code value="{tablet}"/>
     </quantity>
     
     <expectedSupplyDuration>
        <value value="10"/>
        <unit value="days"/>
        <system value="http://unitsofmeasure.org"/>
        <code value="d"/>
     </expectedSupplyDuration>
     
  </dispenseRequest>
  
</MedicationOrder>

  </resource>
  <request>
    <method value="POST"/>
    <url value="MedicationOrder/22"/>
  </request>
</entry>
<entry>
  <resource>
    
    
<MedicationDispense>
  <id value="159"/>
  <!--  insert contents here  -->
   <text>
    <status value="generated"/>
    <div xmlns="http://www.w3.org/1999/xhtml">
      Dispensed 40 tablets = 10 day supply of Acetaminophen 650 MG / propoxyphene napsylate 100 MG Oral Tablet
    </div>
  </text>

  <status value="completed"/>

  <patient>
    <reference value="Patient/731673"/>
  </patient>

  <authorizingPrescription>
    <reference value="MedicationOrder/22"/>
  </authorizingPrescription>

  <quantity>
      <value value="40"/>
      <unit value="tablets"/>
      <system value="http://unitsofmeasure.org"/>
      <code value="{tablets}"/>
  </quantity>

  <daysSupply>
      <value value="10" />
      <unit value="days" />
      <system value="http://unitsofmeasure.org" />
      <code value="d" />
  </daysSupply>

  <medicationCodeableConcept>
    <coding>
        <system value="http://www.nlm.nih.gov/research/umls/rxnorm"/>
        <code value="828576"/>
        <display value="Acetaminophen 650 MG / propoxyphene napsylate 100 MG Oral Tablet"/>
    </coding>
    <text value="Acetaminophen 650 MG / propoxyphene napsylate 100 MG Oral Tablet"/>
  </medicationCodeableConcept>

  <whenHandedOver value="2005-02-17"/>

</MedicationDispense>

  </resource>
  <request>
    <method value="POST"/>
    <url value="MedicationDispense/159"/>
  </request>
</entry>
<entry>
  <resource>
    
    
<MedicationOrder>
  <id value="23"/>
  <text>
    <status value="generated"/>
    <div xmlns="http://www.w3.org/1999/xhtml">
      Meclizine 25 MG Oral Tablet (rxnorm: 311470)
    </div>
  </text>

  <status value="active" />
  <patient>
    <reference value="Patient/731673"/>
  </patient>

  <medicationCodeableConcept>
    <coding>
        <system value="http://www.nlm.nih.gov/research/umls/rxnorm"/>
        <code value="311470"/>
        <display value="Meclizine 25 MG Oral Tablet"/>
    </coding>
    <text value="Meclizine 25 MG Oral Tablet"/>
  </medicationCodeableConcept>

  <dosageInstruction>
    <timing>
      <repeat>
        <boundsPeriod>
          <start value="2005-04-16"/>
        </boundsPeriod>
        <frequency value="2"/>
        <period value="1"/>
        <periodUnits value="d"/>
      </repeat>
      
    </timing>
    <doseQuantity>
      <value value="1"/>
      <unit value="{tablet}"/>
      <system value="http://unitsofmeasure.org"/>
      <code value="{tablet}"/>
    </doseQuantity>
    
    <asNeededBoolean value="true"/>
    
    <text value="1 bid prn dizziness"/>
  </dosageInstruction>
  <dispenseRequest>
     <numberOfRepeatsAllowed value="1"/>
     
     <quantity>
        <value value="14"/>
        <unit value="{tablet}"/>
        <system value="http://unitsofmeasure.org"/>
        <code value="{tablet}"/>
     </quantity>
     
     <expectedSupplyDuration>
        <value value="7"/>
        <unit value="days"/>
        <system value="http://unitsofmeasure.org"/>
        <code value="d"/>
     </expectedSupplyDuration>
     
  </dispenseRequest>
  
</MedicationOrder>

  </resource>
  <request>
    <method value="POST"/>
    <url value="MedicationOrder/23"/>
  </request>
</entry>
<entry>
  <resource>
    
    
<MedicationDispense>
  <id value="183"/>
  <!--  insert contents here  -->
   <text>
    <status value="generated"/>
    <div xmlns="http://www.w3.org/1999/xhtml">
      Dispensed 14 tablets = 7 day supply of Meclizine 25 MG Oral Tablet
    </div>
  </text>

  <status value="completed"/>

  <patient>
    <reference value="Patient/731673"/>
  </patient>

  <authorizingPrescription>
    <reference value="MedicationOrder/23"/>
  </authorizingPrescription>

  <quantity>
      <value value="14"/>
      <unit value="tablets"/>
      <system value="http://unitsofmeasure.org"/>
      <code value="{tablets}"/>
  </quantity>

  <daysSupply>
      <value value="7" />
      <unit value="days" />
      <system value="http://unitsofmeasure.org" />
      <code value="d" />
  </daysSupply>

  <medicationCodeableConcept>
    <coding>
        <system value="http://www.nlm.nih.gov/research/umls/rxnorm"/>
        <code value="311470"/>
        <display value="Meclizine 25 MG Oral Tablet"/>
    </coding>
    <text value="Meclizine 25 MG Oral Tablet"/>
  </medicationCodeableConcept>

  <whenHandedOver value="2005-04-16"/>

</MedicationDispense>

  </resource>
  <request>
    <method value="POST"/>
    <url value="MedicationDispense/183"/>
  </request>
</entry>
<entry>
  <resource>
    
    
<MedicationDispense>
  <id value="184"/>
  <!--  insert contents here  -->
   <text>
    <status value="generated"/>
    <div xmlns="http://www.w3.org/1999/xhtml">
      Dispensed 14 tablets = 7 day supply of Meclizine 25 MG Oral Tablet
    </div>
  </text>

  <status value="completed"/>

  <patient>
    <reference value="Patient/731673"/>
  </patient>

  <authorizingPrescription>
    <reference value="MedicationOrder/23"/>
  </authorizingPrescription>

  <quantity>
      <value value="14"/>
      <unit value="tablets"/>
      <system value="http://unitsofmeasure.org"/>
      <code value="{tablets}"/>
  </quantity>

  <daysSupply>
      <value value="7" />
      <unit value="days" />
      <system value="http://unitsofmeasure.org" />
      <code value="d" />
  </daysSupply>

  <medicationCodeableConcept>
    <coding>
        <system value="http://www.nlm.nih.gov/research/umls/rxnorm"/>
        <code value="311470"/>
        <display value="Meclizine 25 MG Oral Tablet"/>
    </coding>
    <text value="Meclizine 25 MG Oral Tablet"/>
  </medicationCodeableConcept>

  <whenHandedOver value="2005-10-28"/>

</MedicationDispense>

  </resource>
  <request>
    <method value="POST"/>
    <url value="MedicationDispense/184"/>
  </request>
</entry>
<entry>
  <resource>
    
    
<MedicationOrder>
  <id value="24"/>
  <text>
    <status value="generated"/>
    <div xmlns="http://www.w3.org/1999/xhtml">
      Nitrofurantoin 100 MG Oral Capsule (rxnorm: 311992)
    </div>
  </text>

  <status value="active" />
  <patient>
    <reference value="Patient/731673"/>
  </patient>

  <medicationCodeableConcept>
    <coding>
        <system value="http://www.nlm.nih.gov/research/umls/rxnorm"/>
        <code value="311992"/>
        <display value="Nitrofurantoin 100 MG Oral Capsule"/>
    </coding>
    <text value="Nitrofurantoin 100 MG Oral Capsule"/>
  </medicationCodeableConcept>

  <dosageInstruction>
    <timing>
      <repeat>
        <boundsPeriod>
          <start value="2005-05-12"/>
        </boundsPeriod>
        <frequency value="2"/>
        <period value="1"/>
        <periodUnits value="d"/>
      </repeat>
      
    </timing>
    <doseQuantity>
      <value value="1"/>
      <unit value="{tablet}"/>
      <system value="http://unitsofmeasure.org"/>
      <code value="{tablet}"/>
    </doseQuantity>
    
    <text value="1 bid"/>
  </dosageInstruction>
  <dispenseRequest>
     <numberOfRepeatsAllowed value="1"/>
     
     <quantity>
        <value value="20"/>
        <unit value="{tablet}"/>
        <system value="http://unitsofmeasure.org"/>
        <code value="{tablet}"/>
     </quantity>
     
     <expectedSupplyDuration>
        <value value="10"/>
        <unit value="days"/>
        <system value="http://unitsofmeasure.org"/>
        <code value="d"/>
     </expectedSupplyDuration>
     
  </dispenseRequest>
  
</MedicationOrder>

  </resource>
  <request>
    <method value="POST"/>
    <url value="MedicationOrder/24"/>
  </request>
</entry>
<entry>
  <resource>
    
    
<MedicationDispense>
  <id value="168"/>
  <!--  insert contents here  -->
   <text>
    <status value="generated"/>
    <div xmlns="http://www.w3.org/1999/xhtml">
      Dispensed 20 tablets = 10 day supply of Nitrofurantoin 100 MG Oral Capsule
    </div>
  </text>

  <status value="completed"/>

  <patient>
    <reference value="Patient/731673"/>
  </patient>

  <authorizingPrescription>
    <reference value="MedicationOrder/24"/>
  </authorizingPrescription>

  <quantity>
      <value value="20"/>
      <unit value="tablets"/>
      <system value="http://unitsofmeasure.org"/>
      <code value="{tablets}"/>
  </quantity>

  <daysSupply>
      <value value="10" />
      <unit value="days" />
      <system value="http://unitsofmeasure.org" />
      <code value="d" />
  </daysSupply>

  <medicationCodeableConcept>
    <coding>
        <system value="http://www.nlm.nih.gov/research/umls/rxnorm"/>
        <code value="311992"/>
        <display value="Nitrofurantoin 100 MG Oral Capsule"/>
    </coding>
    <text value="Nitrofurantoin 100 MG Oral Capsule"/>
  </medicationCodeableConcept>

  <whenHandedOver value="2005-05-12"/>

</MedicationDispense>

  </resource>
  <request>
    <method value="POST"/>
    <url value="MedicationDispense/168"/>
  </request>
</entry>
<entry>
  <resource>
    
    
<MedicationOrder>
  <id value="25"/>
  <text>
    <status value="generated"/>
    <div xmlns="http://www.w3.org/1999/xhtml">
      120 ACTUAT Triamcinolone 0.055 MG/ACTUAT Nasal Inhaler [Nasacort] (rxnorm: 752370)
    </div>
  </text>

  <status value="active" />
  <patient>
    <reference value="Patient/731673"/>
  </patient>

  <medicationCodeableConcept>
    <coding>
        <system value="http://www.nlm.nih.gov/research/umls/rxnorm"/>
        <code value="752370"/>
        <display value="120 ACTUAT Triamcinolone 0.055 MG/ACTUAT Nasal Inhaler [Nasacort]"/>
    </coding>
    <text value="120 ACTUAT Triamcinolone 0.055 MG/ACTUAT Nasal Inhaler [Nasacort]"/>
  </medicationCodeableConcept>

  <dosageInstruction>
    <timing>
      <repeat>
        <boundsPeriod>
          <start value="2005-09-09"/>
        </boundsPeriod>
        <frequency value="4"/>
        <period value="1"/>
        <periodUnits value="d"/>
      </repeat>
      
    </timing>
    <doseQuantity>
      <value value="2"/>
      <unit value="{puff}"/>
      <system value="http://unitsofmeasure.org"/>
      <code value="{puff}"/>
    </doseQuantity>
    
    <text value="2 puffs bid"/>
  </dosageInstruction>
  <dispenseRequest>
     <numberOfRepeatsAllowed value="1"/>
     
     <quantity>
        <value value="1"/>
        <unit value="{puff}"/>
        <system value="http://unitsofmeasure.org"/>
        <code value="{puff}"/>
     </quantity>
     
     <expectedSupplyDuration>
        <value value="30"/>
        <unit value="days"/>
        <system value="http://unitsofmeasure.org"/>
        <code value="d"/>
     </expectedSupplyDuration>
     
  </dispenseRequest>
  
</MedicationOrder>

  </resource>
  <request>
    <method value="POST"/>
    <url value="MedicationOrder/25"/>
  </request>
</entry>
  <entry>
  <resource>
    
    
  <Condition>
  <id value="104"/>
    <text>
     <status value="generated"/>
     <div xmlns="http://www.w3.org/1999/xhtml">Acute sinusitis</div>   
   </text>
    <patient>
      <reference value="Patient/731673"/>
    </patient>
    <code> 
      <coding>
        <system value="http://snomed.info/sct"/>
        <code value="36971009"/>
        <display value="Acute sinusitis"/>
      </coding>
      <text value="Acute sinusitis"/>
    </code>
   <clinicalStatus value="confirmed"/>
   <onsetDateTime value="2004-10-28"/>
   
  </Condition>
  
  </resource>
  <request>
    <method value="POST"/>
    <url value="Condition/104"/>
  </request>
</entry>
  <entry>
  <resource>
    
    
  <Condition>
  <id value="105"/>
    <text>
     <status value="generated"/>
     <div xmlns="http://www.w3.org/1999/xhtml">Allergic rhinitis</div>   
   </text>
    <patient>
      <reference value="Patient/731673"/>
    </patient>
    <code> 
      <coding>
        <system value="http://snomed.info/sct"/>
        <code value="61582004"/>
        <display value="Allergic rhinitis"/>
      </coding>
      <text value="Allergic rhinitis"/>
    </code>
   <clinicalStatus value="confirmed"/>
   <onsetDateTime value="2004-10-28"/>
   
  </Condition>
  
  </resource>
  <request>
    <method value="POST"/>
    <url value="Condition/105"/>
  </request>
</entry>
  <entry>
  <resource>
    
    
  <Condition>
  <id value="106"/>
    <text>
     <status value="generated"/>
     <div xmlns="http://www.w3.org/1999/xhtml">Dizziness and giddiness</div>   
   </text>
    <patient>
      <reference value="Patient/731673"/>
    </patient>
    <code> 
      <coding>
        <system value="http://snomed.info/sct"/>
        <code value="404640003"/>
        <display value="Dizziness and giddiness"/>
      </coding>
      <text value="Dizziness and giddiness"/>
    </code>
   <clinicalStatus value="confirmed"/>
   <onsetDateTime value="2004-10-28"/>
   
  </Condition>
  
  </resource>
  <request>
    <method value="POST"/>
    <url value="Condition/106"/>
  </request>
</entry>
  <entry>
  <resource>
    
    
  <Condition>
  <id value="107"/>
    <text>
     <status value="generated"/>
     <div xmlns="http://www.w3.org/1999/xhtml">Other diseases of nasal cavity and sinuses</div>   
   </text>
    <patient>
      <reference value="Patient/731673"/>
    </patient>
    <code> 
      <coding>
        <system value="http://snomed.info/sct"/>
        <code value="68235000"/>
        <display value="Other diseases of nasal cavity and sinuses"/>
      </coding>
      <text value="Other diseases of nasal cavity and sinuses"/>
    </code>
   <clinicalStatus value="confirmed"/>
   <onsetDateTime value="2004-10-29"/>
   
  </Condition>
  
  </resource>
  <request>
    <method value="POST"/>
    <url value="Condition/107"/>
  </request>
</entry>
  <entry>
  <resource>
    
    
  <Condition>
  <id value="108"/>
    <text>
     <status value="generated"/>
     <div xmlns="http://www.w3.org/1999/xhtml">Arthropathy</div>   
   </text>
    <patient>
      <reference value="Patient/731673"/>
    </patient>
    <code> 
      <coding>
        <system value="http://snomed.info/sct"/>
        <code value="3723001"/>
        <display value="Arthropathy"/>
      </coding>
      <text value="Arthropathy"/>
    </code>
   <clinicalStatus value="confirmed"/>
   <onsetDateTime value="2005-02-16"/>
   
  </Condition>
  
  </resource>
  <request>
    <method value="POST"/>
    <url value="Condition/108"/>
  </request>
</entry>
  <entry>
  <resource>
    
    
  <Condition>
  <id value="109"/>
    <text>
     <status value="generated"/>
     <div xmlns="http://www.w3.org/1999/xhtml">Myalgia and myositis, unspecified</div>   
   </text>
    <patient>
      <reference value="Patient/731673"/>
    </patient>
    <code> 
      <coding>
        <system value="http://snomed.info/sct"/>
        <code value="68962001"/>
        <display value="Myalgia and myositis, unspecified"/>
      </coding>
      <text value="Myalgia and myositis, unspecified"/>
    </code>
   <clinicalStatus value="confirmed"/>
   <onsetDateTime value="2005-02-16"/>
   
  </Condition>
  
  </resource>
  <request>
    <method value="POST"/>
    <url value="Condition/109"/>
  </request>
</entry>
  <entry>
  <resource>
    
    
  <Condition>
  <id value="110"/>
    <text>
     <status value="generated"/>
     <div xmlns="http://www.w3.org/1999/xhtml">Anxiety</div>   
   </text>
    <patient>
      <reference value="Patient/731673"/>
    </patient>
    <code> 
      <coding>
        <system value="http://snomed.info/sct"/>
        <code value="48694002"/>
        <display value="Anxiety"/>
      </coding>
      <text value="Anxiety"/>
    </code>
   <clinicalStatus value="confirmed"/>
   <onsetDateTime value="2005-03-27"/>
   
  </Condition>
  
  </resource>
  <request>
    <method value="POST"/>
    <url value="Condition/110"/>
  </request>
</entry>
  <entry>
  <resource>
    
    
  <Condition>
  <id value="111"/>
    <text>
     <status value="generated"/>
     <div xmlns="http://www.w3.org/1999/xhtml">Benign essential hypertension</div>   
   </text>
    <patient>
      <reference value="Patient/731673"/>
    </patient>
    <code> 
      <coding>
        <system value="http://snomed.info/sct"/>
        <code value="1201005"/>
        <display value="Benign essential hypertension"/>
      </coding>
      <text value="Benign essential hypertension"/>
    </code>
   <clinicalStatus value="confirmed"/>
   <onsetDateTime value="2005-03-27"/>
   
  </Condition>
  
  </resource>
  <request>
    <method value="POST"/>
    <url value="Condition/111"/>
  </request>
</entry>
  <entry>
  <resource>
    
    
  <Condition>
  <id value="112"/>
    <text>
     <status value="generated"/>
     <div xmlns="http://www.w3.org/1999/xhtml">Depressive disorder</div>   
   </text>
    <patient>
      <reference value="Patient/731673"/>
    </patient>
    <code> 
      <coding>
        <system value="http://snomed.info/sct"/>
        <code value="35489007"/>
        <display value="Depressive disorder"/>
      </coding>
      <text value="Depressive disorder"/>
    </code>
   <clinicalStatus value="confirmed"/>
   <onsetDateTime value="2005-05-12"/>
   
  </Condition>
  
  </resource>
  <request>
    <method value="POST"/>
    <url value="Condition/112"/>
  </request>
</entry>
  <entry>
  <resource>
    
    
  <Condition>
  <id value="113"/>
    <text>
     <status value="generated"/>
     <div xmlns="http://www.w3.org/1999/xhtml">Urinary tract infectious disease</div>   
   </text>
    <patient>
      <reference value="Patient/731673"/>
    </patient>
    <code> 
      <coding>
        <system value="http://snomed.info/sct"/>
        <code value="68566005"/>
        <display value="Urinary tract infectious disease"/>
      </coding>
      <text value="Urinary tract infectious disease"/>
    </code>
   <clinicalStatus value="confirmed"/>
   <onsetDateTime value="2005-05-12"/>
   
  </Condition>
  
  </resource>
  <request>
    <method value="POST"/>
    <url value="Condition/113"/>
  </request>
</entry>
  <entry>
  <resource>
    
    
  <Condition>
  <id value="114"/>
    <text>
     <status value="generated"/>
     <div xmlns="http://www.w3.org/1999/xhtml">Headache</div>   
   </text>
    <patient>
      <reference value="Patient/731673"/>
    </patient>
    <code> 
      <coding>
        <system value="http://snomed.info/sct"/>
        <code value="25064002"/>
        <display value="Headache"/>
      </coding>
      <text value="Headache"/>
    </code>
   <clinicalStatus value="confirmed"/>
   <onsetDateTime value="2005-06-18"/>
   
  </Condition>
  
  </resource>
  <request>
    <method value="POST"/>
    <url value="Condition/114"/>
  </request>
</entry>
  <entry>
  <resource>
    
    
  <Condition>
  <id value="115"/>
    <text>
     <status value="generated"/>
     <div xmlns="http://www.w3.org/1999/xhtml">Essential hypertension</div>   
   </text>
    <patient>
      <reference value="Patient/731673"/>
    </patient>
    <code> 
      <coding>
        <system value="http://snomed.info/sct"/>
        <code value="38341003"/>
        <display value="Essential hypertension"/>
      </coding>
      <text value="Essential hypertension"/>
    </code>
   <clinicalStatus value="confirmed"/>
   <onsetDateTime value="2005-06-19"/>
   
  </Condition>
  
  </resource>
  <request>
    <method value="POST"/>
    <url value="Condition/115"/>
  </request>
</entry>
  <entry>
  <resource>
    
    
  <Condition>
  <id value="116"/>
    <text>
     <status value="generated"/>
     <div xmlns="http://www.w3.org/1999/xhtml">Hyperlipidemia</div>   
   </text>
    <patient>
      <reference value="Patient/731673"/>
    </patient>
    <code> 
      <coding>
        <system value="http://snomed.info/sct"/>
        <code value="55822004"/>
        <display value="Hyperlipidemia"/>
      </coding>
      <text value="Hyperlipidemia"/>
    </code>
   <clinicalStatus value="confirmed"/>
   <onsetDateTime value="2005-06-19"/>
   
  </Condition>
  
  </resource>
  <request>
    <method value="POST"/>
    <url value="Condition/116"/>
  </request>
</entry>
  <entry>
  <resource>
    
    
  <Condition>
  <id value="117"/>
    <text>
     <status value="generated"/>
     <div xmlns="http://www.w3.org/1999/xhtml">Peripheral vertigo</div>   
   </text>
    <patient>
      <reference value="Patient/731673"/>
    </patient>
    <code> 
      <coding>
        <system value="http://snomed.info/sct"/>
        <code value="50438001"/>
        <display value="Peripheral vertigo"/>
      </coding>
      <text value="Peripheral vertigo"/>
    </code>
   <clinicalStatus value="confirmed"/>
   <onsetDateTime value="2005-07-07"/>
   
  </Condition>
  
  </resource>
  <request>
    <method value="POST"/>
    <url value="Condition/117"/>
  </request>
</entry>
  <entry>
  <resource>
    
    
  <Condition>
  <id value="118"/>
    <text>
     <status value="generated"/>
     <div xmlns="http://www.w3.org/1999/xhtml">Sensorineural hearing loss</div>   
   </text>
    <patient>
      <reference value="Patient/731673"/>
    </patient>
    <code> 
      <coding>
        <system value="http://snomed.info/sct"/>
        <code value="60700002"/>
        <display value="Sensorineural hearing loss"/>
      </coding>
      <text value="Sensorineural hearing loss"/>
    </code>
   <clinicalStatus value="confirmed"/>
   <onsetDateTime value="2005-07-07"/>
   
  </Condition>
  
  </resource>
  <request>
    <method value="POST"/>
    <url value="Condition/118"/>
  </request>
</entry>
<entry>
  <resource>
    
    
  <Observation>
  <id value="13-smokingstatus"/>
    <text>
      <status value="generated"/>
      <div xmlns="http://www.w3.org/1999/xhtml">Tobacco smoking status: Never smoker</div>
    </text>
    <code>
      <coding>
        <system value="http://loinc.org"/>
        <code value="72166-2"/>
        <display value="Tobacco smoking status"/>
      </coding>
      <text value="Tobacco smoking status"/>
    </code>
    <valueCodeableConcept>
      <coding>
        <system value="http://snomed.info/sct"/>
        <code value="266919005"/>
        <display value="Never smoker"/>
      </coding>
      <text value="Never smoker"/>
    </valueCodeableConcept>
    <status value="final"/>
    <subject>
      <reference value="Patient/731673"/>
    </subject>
  </Observation>
  
  </resource>
  <request>
    <method value="POST"/>
    <url value="Observation/13-smokingstatus"/>
  </request>
</entry>
<entry>
  <resource>
    
    
  <Observation>
  <id value="731673-gestage"/>
    <text>
      <status value="generated"/>
      <div xmlns="http://www.w3.org/1999/xhtml">1949-09-22: Gestational age at birth = 39.2 weeks</div>
    </text>
    <code>
      <coding>
        <system value="http://loinc.org"/>
        <code value="18185-9"/>
        <display value="Gestational age at birth"/>
      </coding>
      <text value="Gestational age at birth"/>
    </code>
    <valueQuantity>
      <value value="39.2"/>
      <unit value="weeks"/>
      <system value="http://unitsofmeasure.org" />
      <code value="wk"/>
    </valueQuantity>
    
    <effectiveDateTime value="1949-09-22"/>
    <status value="final"/>
    <subject>
      <reference value="Patient/731673"/>
    </subject>
  </Observation>
  
  </resource>
  <request>
    <method value="POST"/>
    <url value="Observation/731673-gestage"/>
  </request>
</entry>
  <entry>
  <resource>
    
    
    <List>
  <id value="9"/>
        <text>
            <status value="generated"/>
            <div xmlns="http://www.w3.org/1999/xhtml">No known allergies</div>
        </text>
        <code>
            <coding>
               <system value="http://loinc.org/"/>
               <code value="52473-6"/>
               <display value="Allergy"/>
            </coding>
            <text value="Allergy"/>
        </code>
        <subject>
          <reference value="Patient/731673"/>
        </subject>
        <date value="2000"/>
        <mode value="snapshot"/>
        <emptyReason>
            <coding>
                <system value="http://hl7.org/fhir/list-empty-reason"/>
                <code value="nilknown"/>
                <display value="Nil Known"/>
            </coding>
            <text value="Nil Known"/>
        </emptyReason>
    </List>
  
  </resource>
  <request>
    <method value="POST"/>
    <url value="List/9"/>
  </request>
</entry>

</Bundle>
