<?xml version="1.0" encoding="UTF-8"?>
<Bundle xmlns="http://hl7.org/fhir">
    <type value="transaction"/>

  <entry>
  <resource>
    
    
  <Patient>
    <id value="1157764"/>
    <text>
      <status value="generated"/>
      <div xmlns="http://www.w3.org/1999/xhtml">
        <p>Carol Hughes</p>
      </div>
    </text>
    <identifier>
      <use value="usual"/>
      <type>
        <coding>
          <system value="http://hl7.org/fhir/v2/0203"/>
          <code value="MR"/>
          <display value="Medical record number"/>
        </coding>
        <text value="Medical record number"/>
      </type>
      <system value="http://hospital.smarthealthit.org"/>
      <value value="1157764"/>
    </identifier>
    <name>
      <use value="official"/>
      <family value="Hughes"/>
      <given value="Carol"/>
      <given value="U."/>
    </name>
    <telecom>
      <system value="phone"/>
      <value value="800-971-5389"/>
      <use value="mobile"/>
    </telecom>
    <telecom>
      <system value="email"/>
      <value value="carol.hughes@example.com"/>
    </telecom>
    <gender value="female" />
    <birthDate value="1949-11-04" />
    <address>
      <use value="home"/>
      <line value="36 South St"/>
      <city value="Tulsa"/>
      <state value="OK"/>
      <postalCode value="74108"/>
      <country value="USA"/>
    </address>
    <active value="true"/>
  </Patient>
  
  </resource>
  <request>
    <method value="POST"/>
    <url value="Patient/1157764"/>
  </request>
</entry>
<entry>
  <resource>
    
    
  <Observation>
  <id value="1842-lab"/>
    <text>
      <status value="generated"/>
      <div xmlns="http://www.w3.org/1999/xhtml">2004-07-23: LDLc SerPl Calc-mCnc = 101 mg/dL</div>
    </text>
    <code>
      <coding>
        <system value="http://loinc.org"/>
        <code value="13457-7"/>
        <display value="LDLc SerPl Calc-mCnc"/>
      </coding>
      <text value="LDLc SerPl Calc-mCnc"/>
    </code>
    <valueQuantity>
      <value value="101.0"/>
      <unit value="mg/dL"/>
      <system value="http://unitsofmeasure.org" />
      <code value=""/>
    </valueQuantity>
    
    <effectiveDateTime value="2004-07-23"/>
    <status value="final"/>
    <subject>
      <reference value="Patient/1157764"/>
    </subject>
    <referenceRange>
      <meaning>
        <coding>
         <system value="http://hl7.org/fhir/referencerange-meaning"/>
         <code value="normal"/>
         <display value="Normal Range"/>
       </coding>
       <text value="Normal Range"/>
      </meaning>
      <low>
        <value value="0.0"/>
        <unit value="mg/dL"/>
        <code value="mg/dL"/>
        <system value="http://unitsofmeasure.org"/>
      </low>
      <high>
        <value value="100.0"/>
        <unit value="mg/dL"/>
        <code value="mg/dL"/>
        <system value="http://unitsofmeasure.org"/>
      </high>
    </referenceRange>
    
  </Observation>
  
  </resource>
  <request>
    <method value="POST"/>
    <url value="Observation/1842-lab"/>
  </request>
</entry>
<entry>
  <resource>
    
    
  <Observation>
  <id value="1843-lab"/>
    <text>
      <status value="generated"/>
      <div xmlns="http://www.w3.org/1999/xhtml">2004-07-23: TSH SerPl DL&lt;=0.005 mU/L-aCnc = 3.548 mcU/mL</div>
    </text>
    <code>
      <coding>
        <system value="http://loinc.org"/>
        <code value="11580-8"/>
        <display value="TSH SerPl DL&lt;=0.005 mU/L-aCnc"/>
      </coding>
      <text value="TSH SerPl DL&lt;=0.005 mU/L-aCnc"/>
    </code>
    <valueQuantity>
      <value value="3.548"/>
      <unit value="mcU/mL"/>
      <system value="http://unitsofmeasure.org" />
      <code value=""/>
    </valueQuantity>
    
    <effectiveDateTime value="2004-07-23"/>
    <status value="final"/>
    <subject>
      <reference value="Patient/1157764"/>
    </subject>
    <referenceRange>
      <meaning>
        <coding>
         <system value="http://hl7.org/fhir/referencerange-meaning"/>
         <code value="normal"/>
         <display value="Normal Range"/>
       </coding>
       <text value="Normal Range"/>
      </meaning>
      <low>
        <value value="0.4"/>
        <unit value="mcU/mL"/>
        <code value="mcU/mL"/>
        <system value="http://unitsofmeasure.org"/>
      </low>
      <high>
        <value value="4.2"/>
        <unit value="mcU/mL"/>
        <code value="mcU/mL"/>
        <system value="http://unitsofmeasure.org"/>
      </high>
    </referenceRange>
    
  </Observation>
  
  </resource>
  <request>
    <method value="POST"/>
    <url value="Observation/1843-lab"/>
  </request>
</entry>
<entry>
  <resource>
    
    
  <Observation>
  <id value="1844-lab"/>
    <text>
      <status value="generated"/>
      <div xmlns="http://www.w3.org/1999/xhtml">2004-07-23: HDLc SerPl-mCnc = 66 mg/dL</div>
    </text>
    <code>
      <coding>
        <system value="http://loinc.org"/>
        <code value="2085-9"/>
        <display value="HDLc SerPl-mCnc"/>
      </coding>
      <text value="HDLc SerPl-mCnc"/>
    </code>
    <valueQuantity>
      <value value="66.0"/>
      <unit value="mg/dL"/>
      <system value="http://unitsofmeasure.org" />
      <code value=""/>
    </valueQuantity>
    
    <effectiveDateTime value="2004-07-23"/>
    <status value="final"/>
    <subject>
      <reference value="Patient/1157764"/>
    </subject>
    <referenceRange>
      <meaning>
        <coding>
         <system value="http://hl7.org/fhir/referencerange-meaning"/>
         <code value="normal"/>
         <display value="Normal Range"/>
       </coding>
       <text value="Normal Range"/>
      </meaning>
      <low>
        <value value="0.0"/>
        <unit value="mg/dL"/>
        <code value="mg/dL"/>
        <system value="http://unitsofmeasure.org"/>
      </low>
      <high>
        <value value="0.0"/>
        <unit value="mg/dL"/>
        <code value="mg/dL"/>
        <system value="http://unitsofmeasure.org"/>
      </high>
    </referenceRange>
    
  </Observation>
  
  </resource>
  <request>
    <method value="POST"/>
    <url value="Observation/1844-lab"/>
  </request>
</entry>
<entry>
  <resource>
    
    
  <Observation>
  <id value="1845-lab"/>
    <text>
      <status value="generated"/>
      <div xmlns="http://www.w3.org/1999/xhtml">2004-07-23: Trigl SerPl-mCnc = 72 mg/dL</div>
    </text>
    <code>
      <coding>
        <system value="http://loinc.org"/>
        <code value="2571-8"/>
        <display value="Trigl SerPl-mCnc"/>
      </coding>
      <text value="Trigl SerPl-mCnc"/>
    </code>
    <valueQuantity>
      <value value="72.0"/>
      <unit value="mg/dL"/>
      <system value="http://unitsofmeasure.org" />
      <code value=""/>
    </valueQuantity>
    
    <effectiveDateTime value="2004-07-23"/>
    <status value="final"/>
    <subject>
      <reference value="Patient/1157764"/>
    </subject>
    <referenceRange>
      <meaning>
        <coding>
         <system value="http://hl7.org/fhir/referencerange-meaning"/>
         <code value="normal"/>
         <display value="Normal Range"/>
       </coding>
       <text value="Normal Range"/>
      </meaning>
      <low>
        <value value="0.0"/>
        <unit value="mg/dL"/>
        <code value="mg/dL"/>
        <system value="http://unitsofmeasure.org"/>
      </low>
      <high>
        <value value="150.0"/>
        <unit value="mg/dL"/>
        <code value="mg/dL"/>
        <system value="http://unitsofmeasure.org"/>
      </high>
    </referenceRange>
    
  </Observation>
  
  </resource>
  <request>
    <method value="POST"/>
    <url value="Observation/1845-lab"/>
  </request>
</entry>
<entry>
  <resource>
    
    
  <Observation>
  <id value="1846-lab"/>
    <text>
      <status value="generated"/>
      <div xmlns="http://www.w3.org/1999/xhtml">2004-07-23: Cholest SerPl-mCnc = 181 mg/dL</div>
    </text>
    <code>
      <coding>
        <system value="http://loinc.org"/>
        <code value="2093-3"/>
        <display value="Cholest SerPl-mCnc"/>
      </coding>
      <text value="Cholest SerPl-mCnc"/>
    </code>
    <valueQuantity>
      <value value="181.0"/>
      <unit value="mg/dL"/>
      <system value="http://unitsofmeasure.org" />
      <code value=""/>
    </valueQuantity>
    
    <effectiveDateTime value="2004-07-23"/>
    <status value="final"/>
    <subject>
      <reference value="Patient/1157764"/>
    </subject>
    <referenceRange>
      <meaning>
        <coding>
         <system value="http://hl7.org/fhir/referencerange-meaning"/>
         <code value="normal"/>
         <display value="Normal Range"/>
       </coding>
       <text value="Normal Range"/>
      </meaning>
      <low>
        <value value="0.0"/>
        <unit value="mg/dL"/>
        <code value="mg/dL"/>
        <system value="http://unitsofmeasure.org"/>
      </low>
      <high>
        <value value="200.0"/>
        <unit value="mg/dL"/>
        <code value="mg/dL"/>
        <system value="http://unitsofmeasure.org"/>
      </high>
    </referenceRange>
    
  </Observation>
  
  </resource>
  <request>
    <method value="POST"/>
    <url value="Observation/1846-lab"/>
  </request>
</entry>
<entry>
  <resource>
    
    
  <Observation>
  <id value="1847-lab"/>
    <text>
      <status value="generated"/>
      <div xmlns="http://www.w3.org/1999/xhtml">2006-10-30: pH Ur Strip = 5 [pH]</div>
    </text>
    <code>
      <coding>
        <system value="http://loinc.org"/>
        <code value="5803-2"/>
        <display value="pH Ur Strip"/>
      </coding>
      <text value="pH Ur Strip"/>
    </code>
    <valueQuantity>
      <value value="5.0"/>
      <unit value="[pH]"/>
      <system value="http://unitsofmeasure.org" />
      <code value=""/>
    </valueQuantity>
    
    <effectiveDateTime value="2006-10-30"/>
    <status value="final"/>
    <subject>
      <reference value="Patient/1157764"/>
    </subject>
    <referenceRange>
      <meaning>
        <coding>
         <system value="http://hl7.org/fhir/referencerange-meaning"/>
         <code value="normal"/>
         <display value="Normal Range"/>
       </coding>
       <text value="Normal Range"/>
      </meaning>
      <low>
        <value value="5.0"/>
        <unit value="[pH]"/>
        <code value="[pH]"/>
        <system value="http://unitsofmeasure.org"/>
      </low>
      <high>
        <value value="8.0"/>
        <unit value="[pH]"/>
        <code value="[pH]"/>
        <system value="http://unitsofmeasure.org"/>
      </high>
    </referenceRange>
    
  </Observation>
  
  </resource>
  <request>
    <method value="POST"/>
    <url value="Observation/1847-lab"/>
  </request>
</entry>
<entry>
  <resource>
    
    
  <Observation>
  <id value="1848-lab"/>
    <text>
      <status value="generated"/>
      <div xmlns="http://www.w3.org/1999/xhtml">2006-10-30: Prot Ur Strip-mCnc = 0 mg/dL</div>
    </text>
    <code>
      <coding>
        <system value="http://loinc.org"/>
        <code value="5804-0"/>
        <display value="Prot Ur Strip-mCnc"/>
      </coding>
      <text value="Prot Ur Strip-mCnc"/>
    </code>
    <valueQuantity>
      <value value="0.0"/>
      <unit value="mg/dL"/>
      <system value="http://unitsofmeasure.org" />
      <code value=""/>
    </valueQuantity>
    
    <effectiveDateTime value="2006-10-30"/>
    <status value="final"/>
    <subject>
      <reference value="Patient/1157764"/>
    </subject>
    <referenceRange>
      <meaning>
        <coding>
         <system value="http://hl7.org/fhir/referencerange-meaning"/>
         <code value="normal"/>
         <display value="Normal Range"/>
       </coding>
       <text value="Normal Range"/>
      </meaning>
      <low>
        <value value="0.0"/>
        <unit value="mg/dL"/>
        <code value="mg/dL"/>
        <system value="http://unitsofmeasure.org"/>
      </low>
      <high>
        <value value="0.0"/>
        <unit value="mg/dL"/>
        <code value="mg/dL"/>
        <system value="http://unitsofmeasure.org"/>
      </high>
    </referenceRange>
    
  </Observation>
  
  </resource>
  <request>
    <method value="POST"/>
    <url value="Observation/1848-lab"/>
  </request>
</entry>
<entry>
  <resource>
    
    
  <Observation>
  <id value="1849-lab"/>
    <text>
      <status value="generated"/>
      <div xmlns="http://www.w3.org/1999/xhtml">2006-10-30: RBC #/area UrnS HPF = 1 /[HPF]</div>
    </text>
    <code>
      <coding>
        <system value="http://loinc.org"/>
        <code value="13945-1"/>
        <display value="RBC #/area UrnS HPF"/>
      </coding>
      <text value="RBC #/area UrnS HPF"/>
    </code>
    <valueQuantity>
      <value value="1.0"/>
      <unit value="/[HPF]"/>
      <system value="http://unitsofmeasure.org" />
      <code value=""/>
    </valueQuantity>
    
    <effectiveDateTime value="2006-10-30"/>
    <status value="final"/>
    <subject>
      <reference value="Patient/1157764"/>
    </subject>
    <referenceRange>
      <meaning>
        <coding>
         <system value="http://hl7.org/fhir/referencerange-meaning"/>
         <code value="normal"/>
         <display value="Normal Range"/>
       </coding>
       <text value="Normal Range"/>
      </meaning>
      <low>
        <value value="0.0"/>
        <unit value="/[HPF]"/>
        <code value="/[HPF]"/>
        <system value="http://unitsofmeasure.org"/>
      </low>
      <high>
        <value value="2.0"/>
        <unit value="/[HPF]"/>
        <code value="/[HPF]"/>
        <system value="http://unitsofmeasure.org"/>
      </high>
    </referenceRange>
    
  </Observation>
  
  </resource>
  <request>
    <method value="POST"/>
    <url value="Observation/1849-lab"/>
  </request>
</entry>
<entry>
  <resource>
    
    
  <Observation>
  <id value="1850-lab"/>
    <text>
      <status value="generated"/>
      <div xmlns="http://www.w3.org/1999/xhtml">2006-10-30: WBC #/area UrnS HPF = 1 /[HPF]</div>
    </text>
    <code>
      <coding>
        <system value="http://loinc.org"/>
        <code value="5821-4"/>
        <display value="WBC #/area UrnS HPF"/>
      </coding>
      <text value="WBC #/area UrnS HPF"/>
    </code>
    <valueQuantity>
      <value value="1.0"/>
      <unit value="/[HPF]"/>
      <system value="http://unitsofmeasure.org" />
      <code value=""/>
    </valueQuantity>
    
    <effectiveDateTime value="2006-10-30"/>
    <status value="final"/>
    <subject>
      <reference value="Patient/1157764"/>
    </subject>
    <referenceRange>
      <meaning>
        <coding>
         <system value="http://hl7.org/fhir/referencerange-meaning"/>
         <code value="normal"/>
         <display value="Normal Range"/>
       </coding>
       <text value="Normal Range"/>
      </meaning>
      <low>
        <value value="0.0"/>
        <unit value="/[HPF]"/>
        <code value="/[HPF]"/>
        <system value="http://unitsofmeasure.org"/>
      </low>
      <high>
        <value value="5.0"/>
        <unit value="/[HPF]"/>
        <code value="/[HPF]"/>
        <system value="http://unitsofmeasure.org"/>
      </high>
    </referenceRange>
    
  </Observation>
  
  </resource>
  <request>
    <method value="POST"/>
    <url value="Observation/1850-lab"/>
  </request>
</entry>
<entry>
  <resource>
    
    
  <Observation>
  <id value="1851-lab"/>
    <text>
      <status value="generated"/>
      <div xmlns="http://www.w3.org/1999/xhtml">2006-10-30: Bacteria #/area UrnS HPF = 44 /[HPF]</div>
    </text>
    <code>
      <coding>
        <system value="http://loinc.org"/>
        <code value="5769-5"/>
        <display value="Bacteria #/area UrnS HPF"/>
      </coding>
      <text value="Bacteria #/area UrnS HPF"/>
    </code>
    <valueQuantity>
      <value value="44.0"/>
      <unit value="/[HPF]"/>
      <system value="http://unitsofmeasure.org" />
      <code value=""/>
    </valueQuantity>
    
    <effectiveDateTime value="2006-10-30"/>
    <status value="final"/>
    <subject>
      <reference value="Patient/1157764"/>
    </subject>
    <referenceRange>
      <meaning>
        <coding>
         <system value="http://hl7.org/fhir/referencerange-meaning"/>
         <code value="normal"/>
         <display value="Normal Range"/>
       </coding>
       <text value="Normal Range"/>
      </meaning>
      <low>
        <value value="0.0"/>
        <unit value="/[HPF]"/>
        <code value="/[HPF]"/>
        <system value="http://unitsofmeasure.org"/>
      </low>
      <high>
        <value value="0.0"/>
        <unit value="/[HPF]"/>
        <code value="/[HPF]"/>
        <system value="http://unitsofmeasure.org"/>
      </high>
    </referenceRange>
    
  </Observation>
  
  </resource>
  <request>
    <method value="POST"/>
    <url value="Observation/1851-lab"/>
  </request>
</entry>
<entry>
  <resource>
    
    
  <Observation>
  <id value="1852-lab"/>
    <extension url="http://fhir-registry.smarthealthit.org/StructureDefinition/labs#value-range" >
        <valueString value='[&#39;None&#39;, &#39;Few&#39;, &#39;Many&#39;]'/>
    </extension>
    
    <text>
      <status value="generated"/>
      <div xmlns="http://www.w3.org/1999/xhtml">2006-10-30: Squamous UrnS Ql HPF = None </div>
    </text>
    <code>
      <coding>
        <system value="http://loinc.org"/>
        <code value="12258-0"/>
        <display value="Squamous UrnS Ql HPF"/>
      </coding>
      <text value="Squamous UrnS Ql HPF"/>
    </code>
    <valueString value="None"/>
    
    <effectiveDateTime value="2006-10-30"/>
    <status value="final"/>
    <subject>
      <reference value="Patient/1157764"/>
    </subject>
  </Observation>
  
  </resource>
  <request>
    <method value="POST"/>
    <url value="Observation/1852-lab"/>
  </request>
</entry>
<entry>
  <resource>
    
    
  <Observation>
  <id value="1853-lab"/>
    <text>
      <status value="generated"/>
      <div xmlns="http://www.w3.org/1999/xhtml">2006-10-30: Sp Gr Ur Strip = 1.001 </div>
    </text>
    <code>
      <coding>
        <system value="http://loinc.org"/>
        <code value="5811-5"/>
        <display value="Sp Gr Ur Strip"/>
      </coding>
      <text value="Sp Gr Ur Strip"/>
    </code>
    <valueQuantity>
      <value value="1.001"/>
      <unit value=""/>
      <system value="http://unitsofmeasure.org" />
      <code value=""/>
    </valueQuantity>
    
    <effectiveDateTime value="2006-10-30"/>
    <status value="final"/>
    <subject>
      <reference value="Patient/1157764"/>
    </subject>
    <referenceRange>
      <meaning>
        <coding>
         <system value="http://hl7.org/fhir/referencerange-meaning"/>
         <code value="normal"/>
         <display value="Normal Range"/>
       </coding>
       <text value="Normal Range"/>
      </meaning>
      <low>
        <value value="1.003"/>
        <unit value=""/>
        <code value=""/>
        <system value="http://unitsofmeasure.org"/>
      </low>
      <high>
        <value value="1.03"/>
        <unit value=""/>
        <code value=""/>
        <system value="http://unitsofmeasure.org"/>
      </high>
    </referenceRange>
    
  </Observation>
  
  </resource>
  <request>
    <method value="POST"/>
    <url value="Observation/1853-lab"/>
  </request>
</entry>
<entry>
  <resource>
    
    
  <Observation>
  <id value="1854-lab"/>
    <extension url="http://fhir-registry.smarthealthit.org/StructureDefinition/labs#value-range" >
        <valueString value='[&#39;Negative&#39;, &#39;Positive&#39;]'/>
    </extension>
    
    <text>
      <status value="generated"/>
      <div xmlns="http://www.w3.org/1999/xhtml">2006-10-30: Nitrite Ur Ql Strip = Negative </div>
    </text>
    <code>
      <coding>
        <system value="http://loinc.org"/>
        <code value="5802-4"/>
        <display value="Nitrite Ur Ql Strip"/>
      </coding>
      <text value="Nitrite Ur Ql Strip"/>
    </code>
    <valueString value="Negative"/>
    
    <effectiveDateTime value="2006-10-30"/>
    <status value="final"/>
    <subject>
      <reference value="Patient/1157764"/>
    </subject>
  </Observation>
  
  </resource>
  <request>
    <method value="POST"/>
    <url value="Observation/1854-lab"/>
  </request>
</entry>
<entry>
  <resource>
    
    
  <Observation>
  <id value="1855-lab"/>
    <text>
      <status value="generated"/>
      <div xmlns="http://www.w3.org/1999/xhtml">2006-10-30: Appearance Ur = Clear </div>
    </text>
    <code>
      <coding>
        <system value="http://loinc.org"/>
        <code value="5767-9"/>
        <display value="Appearance Ur"/>
      </coding>
      <text value="Appearance Ur"/>
    </code>
    <valueString value="Clear"/>
    
    <effectiveDateTime value="2006-10-30"/>
    <status value="final"/>
    <subject>
      <reference value="Patient/1157764"/>
    </subject>
  </Observation>
  
  </resource>
  <request>
    <method value="POST"/>
    <url value="Observation/1855-lab"/>
  </request>
</entry>
<entry>
  <resource>
    
    
  <Observation>
  <id value="1856-lab"/>
    <text>
      <status value="generated"/>
      <div xmlns="http://www.w3.org/1999/xhtml">2004-07-23: CRP SerPl HS-mCnc = 2.2 mg/L</div>
    </text>
    <code>
      <coding>
        <system value="http://loinc.org"/>
        <code value="30522-7"/>
        <display value="CRP SerPl HS-mCnc"/>
      </coding>
      <text value="CRP SerPl HS-mCnc"/>
    </code>
    <valueQuantity>
      <value value="2.2"/>
      <unit value="mg/L"/>
      <system value="http://unitsofmeasure.org" />
      <code value=""/>
    </valueQuantity>
    
    <effectiveDateTime value="2004-07-23"/>
    <status value="final"/>
    <subject>
      <reference value="Patient/1157764"/>
    </subject>
    <referenceRange>
      <meaning>
        <coding>
         <system value="http://hl7.org/fhir/referencerange-meaning"/>
         <code value="normal"/>
         <display value="Normal Range"/>
       </coding>
       <text value="Normal Range"/>
      </meaning>
      <low>
        <value value="0.0"/>
        <unit value="mg/L"/>
        <code value="mg/L"/>
        <system value="http://unitsofmeasure.org"/>
      </low>
      <high>
        <value value="3.0"/>
        <unit value="mg/L"/>
        <code value="mg/L"/>
        <system value="http://unitsofmeasure.org"/>
      </high>
    </referenceRange>
    
  </Observation>
  
  </resource>
  <request>
    <method value="POST"/>
    <url value="Observation/1856-lab"/>
  </request>
</entry>
<entry>
  <resource>
    
    
<MedicationOrder>
  <id value="128"/>
  <text>
    <status value="generated"/>
    <div xmlns="http://www.w3.org/1999/xhtml">
      anastrozole 1 MG Oral Tablet [Arimidex] (rxnorm: 151124)
    </div>
  </text>

  <status value="active" />
  <patient>
    <reference value="Patient/1157764"/>
  </patient>

  <medicationCodeableConcept>
    <coding>
        <system value="http://www.nlm.nih.gov/research/umls/rxnorm"/>
        <code value="151124"/>
        <display value="anastrozole 1 MG Oral Tablet [Arimidex]"/>
    </coding>
    <text value="anastrozole 1 MG Oral Tablet [Arimidex]"/>
  </medicationCodeableConcept>

  <dosageInstruction>
    <timing>
      <repeat>
        <boundsPeriod>
          <start value="2003-10-23"/>
        </boundsPeriod>
        <frequency value="1"/>
        <period value="1"/>
        <periodUnits value="d"/>
      </repeat>
      
    </timing>
    <doseQuantity>
      <value value="1"/>
      <unit value="{tablet}"/>
      <system value="http://unitsofmeasure.org"/>
      <code value="{tablet}"/>
    </doseQuantity>
    
    <text value="1 daily"/>
  </dosageInstruction>
  <dispenseRequest>
     <numberOfRepeatsAllowed value="1"/>
     
     <quantity>
        <value value="30"/>
        <unit value="{tablet}"/>
        <system value="http://unitsofmeasure.org"/>
        <code value="{tablet}"/>
     </quantity>
     
     <expectedSupplyDuration>
        <value value="30"/>
        <unit value="days"/>
        <system value="http://unitsofmeasure.org"/>
        <code value="d"/>
     </expectedSupplyDuration>
     
  </dispenseRequest>
  
</MedicationOrder>

  </resource>
  <request>
    <method value="POST"/>
    <url value="MedicationOrder/128"/>
  </request>
</entry>
<entry>
  <resource>
    
    
<MedicationDispense>
  <id value="928"/>
  <!--  insert contents here  -->
   <text>
    <status value="generated"/>
    <div xmlns="http://www.w3.org/1999/xhtml">
      Dispensed 30 tablets = 30 day supply of anastrozole 1 MG Oral Tablet [Arimidex]
    </div>
  </text>

  <status value="completed"/>

  <patient>
    <reference value="Patient/1157764"/>
  </patient>

  <authorizingPrescription>
    <reference value="MedicationOrder/128"/>
  </authorizingPrescription>

  <quantity>
      <value value="30"/>
      <unit value="tablets"/>
      <system value="http://unitsofmeasure.org"/>
      <code value="{tablets}"/>
  </quantity>

  <daysSupply>
      <value value="30" />
      <unit value="days" />
      <system value="http://unitsofmeasure.org" />
      <code value="d" />
  </daysSupply>

  <medicationCodeableConcept>
    <coding>
        <system value="http://www.nlm.nih.gov/research/umls/rxnorm"/>
        <code value="151124"/>
        <display value="anastrozole 1 MG Oral Tablet [Arimidex]"/>
    </coding>
    <text value="anastrozole 1 MG Oral Tablet [Arimidex]"/>
  </medicationCodeableConcept>

  <whenHandedOver value="2005-07-04"/>

</MedicationDispense>

  </resource>
  <request>
    <method value="POST"/>
    <url value="MedicationDispense/928"/>
  </request>
</entry>
<entry>
  <resource>
    
    
<MedicationDispense>
  <id value="913"/>
  <!--  insert contents here  -->
   <text>
    <status value="generated"/>
    <div xmlns="http://www.w3.org/1999/xhtml">
      Dispensed 30 tablets = 30 day supply of anastrozole 1 MG Oral Tablet [Arimidex]
    </div>
  </text>

  <status value="completed"/>

  <patient>
    <reference value="Patient/1157764"/>
  </patient>

  <authorizingPrescription>
    <reference value="MedicationOrder/128"/>
  </authorizingPrescription>

  <quantity>
      <value value="30"/>
      <unit value="tablets"/>
      <system value="http://unitsofmeasure.org"/>
      <code value="{tablets}"/>
  </quantity>

  <daysSupply>
      <value value="30" />
      <unit value="days" />
      <system value="http://unitsofmeasure.org" />
      <code value="d" />
  </daysSupply>

  <medicationCodeableConcept>
    <coding>
        <system value="http://www.nlm.nih.gov/research/umls/rxnorm"/>
        <code value="151124"/>
        <display value="anastrozole 1 MG Oral Tablet [Arimidex]"/>
    </coding>
    <text value="anastrozole 1 MG Oral Tablet [Arimidex]"/>
  </medicationCodeableConcept>

  <whenHandedOver value="2004-01-20"/>

</MedicationDispense>

  </resource>
  <request>
    <method value="POST"/>
    <url value="MedicationDispense/913"/>
  </request>
</entry>
<entry>
  <resource>
    
    
<MedicationDispense>
  <id value="936"/>
  <!--  insert contents here  -->
   <text>
    <status value="generated"/>
    <div xmlns="http://www.w3.org/1999/xhtml">
      Dispensed 30 tablets = 30 day supply of anastrozole 1 MG Oral Tablet [Arimidex]
    </div>
  </text>

  <status value="completed"/>

  <patient>
    <reference value="Patient/1157764"/>
  </patient>

  <authorizingPrescription>
    <reference value="MedicationOrder/128"/>
  </authorizingPrescription>

  <quantity>
      <value value="30"/>
      <unit value="tablets"/>
      <system value="http://unitsofmeasure.org"/>
      <code value="{tablets}"/>
  </quantity>

  <daysSupply>
      <value value="30" />
      <unit value="days" />
      <system value="http://unitsofmeasure.org" />
      <code value="d" />
  </daysSupply>

  <medicationCodeableConcept>
    <coding>
        <system value="http://www.nlm.nih.gov/research/umls/rxnorm"/>
        <code value="151124"/>
        <display value="anastrozole 1 MG Oral Tablet [Arimidex]"/>
    </coding>
    <text value="anastrozole 1 MG Oral Tablet [Arimidex]"/>
  </medicationCodeableConcept>

  <whenHandedOver value="2006-03-02"/>

</MedicationDispense>

  </resource>
  <request>
    <method value="POST"/>
    <url value="MedicationDispense/936"/>
  </request>
</entry>
<entry>
  <resource>
    
    
<MedicationDispense>
  <id value="925"/>
  <!--  insert contents here  -->
   <text>
    <status value="generated"/>
    <div xmlns="http://www.w3.org/1999/xhtml">
      Dispensed 30 tablets = 30 day supply of anastrozole 1 MG Oral Tablet [Arimidex]
    </div>
  </text>

  <status value="completed"/>

  <patient>
    <reference value="Patient/1157764"/>
  </patient>

  <authorizingPrescription>
    <reference value="MedicationOrder/128"/>
  </authorizingPrescription>

  <quantity>
      <value value="30"/>
      <unit value="tablets"/>
      <system value="http://unitsofmeasure.org"/>
      <code value="{tablets}"/>
  </quantity>

  <daysSupply>
      <value value="30" />
      <unit value="days" />
      <system value="http://unitsofmeasure.org" />
      <code value="d" />
  </daysSupply>

  <medicationCodeableConcept>
    <coding>
        <system value="http://www.nlm.nih.gov/research/umls/rxnorm"/>
        <code value="151124"/>
        <display value="anastrozole 1 MG Oral Tablet [Arimidex]"/>
    </coding>
    <text value="anastrozole 1 MG Oral Tablet [Arimidex]"/>
  </medicationCodeableConcept>

  <whenHandedOver value="2005-04-07"/>

</MedicationDispense>

  </resource>
  <request>
    <method value="POST"/>
    <url value="MedicationDispense/925"/>
  </request>
</entry>
<entry>
  <resource>
    
    
<MedicationDispense>
  <id value="920"/>
  <!--  insert contents here  -->
   <text>
    <status value="generated"/>
    <div xmlns="http://www.w3.org/1999/xhtml">
      Dispensed 30 tablets = 30 day supply of anastrozole 1 MG Oral Tablet [Arimidex]
    </div>
  </text>

  <status value="completed"/>

  <patient>
    <reference value="Patient/1157764"/>
  </patient>

  <authorizingPrescription>
    <reference value="MedicationOrder/128"/>
  </authorizingPrescription>

  <quantity>
      <value value="30"/>
      <unit value="tablets"/>
      <system value="http://unitsofmeasure.org"/>
      <code value="{tablets}"/>
  </quantity>

  <daysSupply>
      <value value="30" />
      <unit value="days" />
      <system value="http://unitsofmeasure.org" />
      <code value="d" />
  </daysSupply>

  <medicationCodeableConcept>
    <coding>
        <system value="http://www.nlm.nih.gov/research/umls/rxnorm"/>
        <code value="151124"/>
        <display value="anastrozole 1 MG Oral Tablet [Arimidex]"/>
    </coding>
    <text value="anastrozole 1 MG Oral Tablet [Arimidex]"/>
  </medicationCodeableConcept>

  <whenHandedOver value="2004-09-26"/>

</MedicationDispense>

  </resource>
  <request>
    <method value="POST"/>
    <url value="MedicationDispense/920"/>
  </request>
</entry>
<entry>
  <resource>
    
    
<MedicationDispense>
  <id value="924"/>
  <!--  insert contents here  -->
   <text>
    <status value="generated"/>
    <div xmlns="http://www.w3.org/1999/xhtml">
      Dispensed 30 tablets = 30 day supply of anastrozole 1 MG Oral Tablet [Arimidex]
    </div>
  </text>

  <status value="completed"/>

  <patient>
    <reference value="Patient/1157764"/>
  </patient>

  <authorizingPrescription>
    <reference value="MedicationOrder/128"/>
  </authorizingPrescription>

  <quantity>
      <value value="30"/>
      <unit value="tablets"/>
      <system value="http://unitsofmeasure.org"/>
      <code value="{tablets}"/>
  </quantity>

  <daysSupply>
      <value value="30" />
      <unit value="days" />
      <system value="http://unitsofmeasure.org" />
      <code value="d" />
  </daysSupply>

  <medicationCodeableConcept>
    <coding>
        <system value="http://www.nlm.nih.gov/research/umls/rxnorm"/>
        <code value="151124"/>
        <display value="anastrozole 1 MG Oral Tablet [Arimidex]"/>
    </coding>
    <text value="anastrozole 1 MG Oral Tablet [Arimidex]"/>
  </medicationCodeableConcept>

  <whenHandedOver value="2005-03-09"/>

</MedicationDispense>

  </resource>
  <request>
    <method value="POST"/>
    <url value="MedicationDispense/924"/>
  </request>
</entry>
<entry>
  <resource>
    
    
<MedicationDispense>
  <id value="927"/>
  <!--  insert contents here  -->
   <text>
    <status value="generated"/>
    <div xmlns="http://www.w3.org/1999/xhtml">
      Dispensed 30 tablets = 30 day supply of anastrozole 1 MG Oral Tablet [Arimidex]
    </div>
  </text>

  <status value="completed"/>

  <patient>
    <reference value="Patient/1157764"/>
  </patient>

  <authorizingPrescription>
    <reference value="MedicationOrder/128"/>
  </authorizingPrescription>

  <quantity>
      <value value="30"/>
      <unit value="tablets"/>
      <system value="http://unitsofmeasure.org"/>
      <code value="{tablets}"/>
  </quantity>

  <daysSupply>
      <value value="30" />
      <unit value="days" />
      <system value="http://unitsofmeasure.org" />
      <code value="d" />
  </daysSupply>

  <medicationCodeableConcept>
    <coding>
        <system value="http://www.nlm.nih.gov/research/umls/rxnorm"/>
        <code value="151124"/>
        <display value="anastrozole 1 MG Oral Tablet [Arimidex]"/>
    </coding>
    <text value="anastrozole 1 MG Oral Tablet [Arimidex]"/>
  </medicationCodeableConcept>

  <whenHandedOver value="2005-06-05"/>

</MedicationDispense>

  </resource>
  <request>
    <method value="POST"/>
    <url value="MedicationDispense/927"/>
  </request>
</entry>
<entry>
  <resource>
    
    
<MedicationDispense>
  <id value="930"/>
  <!--  insert contents here  -->
   <text>
    <status value="generated"/>
    <div xmlns="http://www.w3.org/1999/xhtml">
      Dispensed 30 tablets = 30 day supply of anastrozole 1 MG Oral Tablet [Arimidex]
    </div>
  </text>

  <status value="completed"/>

  <patient>
    <reference value="Patient/1157764"/>
  </patient>

  <authorizingPrescription>
    <reference value="MedicationOrder/128"/>
  </authorizingPrescription>

  <quantity>
      <value value="30"/>
      <unit value="tablets"/>
      <system value="http://unitsofmeasure.org"/>
      <code value="{tablets}"/>
  </quantity>

  <daysSupply>
      <value value="30" />
      <unit value="days" />
      <system value="http://unitsofmeasure.org" />
      <code value="d" />
  </daysSupply>

  <medicationCodeableConcept>
    <coding>
        <system value="http://www.nlm.nih.gov/research/umls/rxnorm"/>
        <code value="151124"/>
        <display value="anastrozole 1 MG Oral Tablet [Arimidex]"/>
    </coding>
    <text value="anastrozole 1 MG Oral Tablet [Arimidex]"/>
  </medicationCodeableConcept>

  <whenHandedOver value="2005-09-02"/>

</MedicationDispense>

  </resource>
  <request>
    <method value="POST"/>
    <url value="MedicationDispense/930"/>
  </request>
</entry>
<entry>
  <resource>
    
    
<MedicationDispense>
  <id value="912"/>
  <!--  insert contents here  -->
   <text>
    <status value="generated"/>
    <div xmlns="http://www.w3.org/1999/xhtml">
      Dispensed 30 tablets = 30 day supply of anastrozole 1 MG Oral Tablet [Arimidex]
    </div>
  </text>

  <status value="completed"/>

  <patient>
    <reference value="Patient/1157764"/>
  </patient>

  <authorizingPrescription>
    <reference value="MedicationOrder/128"/>
  </authorizingPrescription>

  <quantity>
      <value value="30"/>
      <unit value="tablets"/>
      <system value="http://unitsofmeasure.org"/>
      <code value="{tablets}"/>
  </quantity>

  <daysSupply>
      <value value="30" />
      <unit value="days" />
      <system value="http://unitsofmeasure.org" />
      <code value="d" />
  </daysSupply>

  <medicationCodeableConcept>
    <coding>
        <system value="http://www.nlm.nih.gov/research/umls/rxnorm"/>
        <code value="151124"/>
        <display value="anastrozole 1 MG Oral Tablet [Arimidex]"/>
    </coding>
    <text value="anastrozole 1 MG Oral Tablet [Arimidex]"/>
  </medicationCodeableConcept>

  <whenHandedOver value="2003-12-21"/>

</MedicationDispense>

  </resource>
  <request>
    <method value="POST"/>
    <url value="MedicationDispense/912"/>
  </request>
</entry>
<entry>
  <resource>
    
    
<MedicationDispense>
  <id value="917"/>
  <!--  insert contents here  -->
   <text>
    <status value="generated"/>
    <div xmlns="http://www.w3.org/1999/xhtml">
      Dispensed 30 tablets = 30 day supply of anastrozole 1 MG Oral Tablet [Arimidex]
    </div>
  </text>

  <status value="completed"/>

  <patient>
    <reference value="Patient/1157764"/>
  </patient>

  <authorizingPrescription>
    <reference value="MedicationOrder/128"/>
  </authorizingPrescription>

  <quantity>
      <value value="30"/>
      <unit value="tablets"/>
      <system value="http://unitsofmeasure.org"/>
      <code value="{tablets}"/>
  </quantity>

  <daysSupply>
      <value value="30" />
      <unit value="days" />
      <system value="http://unitsofmeasure.org" />
      <code value="d" />
  </daysSupply>

  <medicationCodeableConcept>
    <coding>
        <system value="http://www.nlm.nih.gov/research/umls/rxnorm"/>
        <code value="151124"/>
        <display value="anastrozole 1 MG Oral Tablet [Arimidex]"/>
    </coding>
    <text value="anastrozole 1 MG Oral Tablet [Arimidex]"/>
  </medicationCodeableConcept>

  <whenHandedOver value="2004-06-29"/>

</MedicationDispense>

  </resource>
  <request>
    <method value="POST"/>
    <url value="MedicationDispense/917"/>
  </request>
</entry>
<entry>
  <resource>
    
    
<MedicationDispense>
  <id value="931"/>
  <!--  insert contents here  -->
   <text>
    <status value="generated"/>
    <div xmlns="http://www.w3.org/1999/xhtml">
      Dispensed 30 tablets = 30 day supply of anastrozole 1 MG Oral Tablet [Arimidex]
    </div>
  </text>

  <status value="completed"/>

  <patient>
    <reference value="Patient/1157764"/>
  </patient>

  <authorizingPrescription>
    <reference value="MedicationOrder/128"/>
  </authorizingPrescription>

  <quantity>
      <value value="30"/>
      <unit value="tablets"/>
      <system value="http://unitsofmeasure.org"/>
      <code value="{tablets}"/>
  </quantity>

  <daysSupply>
      <value value="30" />
      <unit value="days" />
      <system value="http://unitsofmeasure.org" />
      <code value="d" />
  </daysSupply>

  <medicationCodeableConcept>
    <coding>
        <system value="http://www.nlm.nih.gov/research/umls/rxnorm"/>
        <code value="151124"/>
        <display value="anastrozole 1 MG Oral Tablet [Arimidex]"/>
    </coding>
    <text value="anastrozole 1 MG Oral Tablet [Arimidex]"/>
  </medicationCodeableConcept>

  <whenHandedOver value="2005-10-03"/>

</MedicationDispense>

  </resource>
  <request>
    <method value="POST"/>
    <url value="MedicationDispense/931"/>
  </request>
</entry>
<entry>
  <resource>
    
    
<MedicationDispense>
  <id value="921"/>
  <!--  insert contents here  -->
   <text>
    <status value="generated"/>
    <div xmlns="http://www.w3.org/1999/xhtml">
      Dispensed 30 tablets = 30 day supply of anastrozole 1 MG Oral Tablet [Arimidex]
    </div>
  </text>

  <status value="completed"/>

  <patient>
    <reference value="Patient/1157764"/>
  </patient>

  <authorizingPrescription>
    <reference value="MedicationOrder/128"/>
  </authorizingPrescription>

  <quantity>
      <value value="30"/>
      <unit value="tablets"/>
      <system value="http://unitsofmeasure.org"/>
      <code value="{tablets}"/>
  </quantity>

  <daysSupply>
      <value value="30" />
      <unit value="days" />
      <system value="http://unitsofmeasure.org" />
      <code value="d" />
  </daysSupply>

  <medicationCodeableConcept>
    <coding>
        <system value="http://www.nlm.nih.gov/research/umls/rxnorm"/>
        <code value="151124"/>
        <display value="anastrozole 1 MG Oral Tablet [Arimidex]"/>
    </coding>
    <text value="anastrozole 1 MG Oral Tablet [Arimidex]"/>
  </medicationCodeableConcept>

  <whenHandedOver value="2004-10-27"/>

</MedicationDispense>

  </resource>
  <request>
    <method value="POST"/>
    <url value="MedicationDispense/921"/>
  </request>
</entry>
<entry>
  <resource>
    
    
<MedicationDispense>
  <id value="911"/>
  <!--  insert contents here  -->
   <text>
    <status value="generated"/>
    <div xmlns="http://www.w3.org/1999/xhtml">
      Dispensed 30 tablets = 30 day supply of anastrozole 1 MG Oral Tablet [Arimidex]
    </div>
  </text>

  <status value="completed"/>

  <patient>
    <reference value="Patient/1157764"/>
  </patient>

  <authorizingPrescription>
    <reference value="MedicationOrder/128"/>
  </authorizingPrescription>

  <quantity>
      <value value="30"/>
      <unit value="tablets"/>
      <system value="http://unitsofmeasure.org"/>
      <code value="{tablets}"/>
  </quantity>

  <daysSupply>
      <value value="30" />
      <unit value="days" />
      <system value="http://unitsofmeasure.org" />
      <code value="d" />
  </daysSupply>

  <medicationCodeableConcept>
    <coding>
        <system value="http://www.nlm.nih.gov/research/umls/rxnorm"/>
        <code value="151124"/>
        <display value="anastrozole 1 MG Oral Tablet [Arimidex]"/>
    </coding>
    <text value="anastrozole 1 MG Oral Tablet [Arimidex]"/>
  </medicationCodeableConcept>

  <whenHandedOver value="2003-11-21"/>

</MedicationDispense>

  </resource>
  <request>
    <method value="POST"/>
    <url value="MedicationDispense/911"/>
  </request>
</entry>
<entry>
  <resource>
    
    
<MedicationDispense>
  <id value="934"/>
  <!--  insert contents here  -->
   <text>
    <status value="generated"/>
    <div xmlns="http://www.w3.org/1999/xhtml">
      Dispensed 30 tablets = 30 day supply of anastrozole 1 MG Oral Tablet [Arimidex]
    </div>
  </text>

  <status value="completed"/>

  <patient>
    <reference value="Patient/1157764"/>
  </patient>

  <authorizingPrescription>
    <reference value="MedicationOrder/128"/>
  </authorizingPrescription>

  <quantity>
      <value value="30"/>
      <unit value="tablets"/>
      <system value="http://unitsofmeasure.org"/>
      <code value="{tablets}"/>
  </quantity>

  <daysSupply>
      <value value="30" />
      <unit value="days" />
      <system value="http://unitsofmeasure.org" />
      <code value="d" />
  </daysSupply>

  <medicationCodeableConcept>
    <coding>
        <system value="http://www.nlm.nih.gov/research/umls/rxnorm"/>
        <code value="151124"/>
        <display value="anastrozole 1 MG Oral Tablet [Arimidex]"/>
    </coding>
    <text value="anastrozole 1 MG Oral Tablet [Arimidex]"/>
  </medicationCodeableConcept>

  <whenHandedOver value="2006-01-01"/>

</MedicationDispense>

  </resource>
  <request>
    <method value="POST"/>
    <url value="MedicationDispense/934"/>
  </request>
</entry>
<entry>
  <resource>
    
    
<MedicationDispense>
  <id value="915"/>
  <!--  insert contents here  -->
   <text>
    <status value="generated"/>
    <div xmlns="http://www.w3.org/1999/xhtml">
      Dispensed 30 tablets = 30 day supply of anastrozole 1 MG Oral Tablet [Arimidex]
    </div>
  </text>

  <status value="completed"/>

  <patient>
    <reference value="Patient/1157764"/>
  </patient>

  <authorizingPrescription>
    <reference value="MedicationOrder/128"/>
  </authorizingPrescription>

  <quantity>
      <value value="30"/>
      <unit value="tablets"/>
      <system value="http://unitsofmeasure.org"/>
      <code value="{tablets}"/>
  </quantity>

  <daysSupply>
      <value value="30" />
      <unit value="days" />
      <system value="http://unitsofmeasure.org" />
      <code value="d" />
  </daysSupply>

  <medicationCodeableConcept>
    <coding>
        <system value="http://www.nlm.nih.gov/research/umls/rxnorm"/>
        <code value="151124"/>
        <display value="anastrozole 1 MG Oral Tablet [Arimidex]"/>
    </coding>
    <text value="anastrozole 1 MG Oral Tablet [Arimidex]"/>
  </medicationCodeableConcept>

  <whenHandedOver value="2004-03-20"/>

</MedicationDispense>

  </resource>
  <request>
    <method value="POST"/>
    <url value="MedicationDispense/915"/>
  </request>
</entry>
<entry>
  <resource>
    
    
<MedicationDispense>
  <id value="916"/>
  <!--  insert contents here  -->
   <text>
    <status value="generated"/>
    <div xmlns="http://www.w3.org/1999/xhtml">
      Dispensed 30 tablets = 30 day supply of anastrozole 1 MG Oral Tablet [Arimidex]
    </div>
  </text>

  <status value="completed"/>

  <patient>
    <reference value="Patient/1157764"/>
  </patient>

  <authorizingPrescription>
    <reference value="MedicationOrder/128"/>
  </authorizingPrescription>

  <quantity>
      <value value="30"/>
      <unit value="tablets"/>
      <system value="http://unitsofmeasure.org"/>
      <code value="{tablets}"/>
  </quantity>

  <daysSupply>
      <value value="30" />
      <unit value="days" />
      <system value="http://unitsofmeasure.org" />
      <code value="d" />
  </daysSupply>

  <medicationCodeableConcept>
    <coding>
        <system value="http://www.nlm.nih.gov/research/umls/rxnorm"/>
        <code value="151124"/>
        <display value="anastrozole 1 MG Oral Tablet [Arimidex]"/>
    </coding>
    <text value="anastrozole 1 MG Oral Tablet [Arimidex]"/>
  </medicationCodeableConcept>

  <whenHandedOver value="2004-04-19"/>

</MedicationDispense>

  </resource>
  <request>
    <method value="POST"/>
    <url value="MedicationDispense/916"/>
  </request>
</entry>
<entry>
  <resource>
    
    
<MedicationDispense>
  <id value="926"/>
  <!--  insert contents here  -->
   <text>
    <status value="generated"/>
    <div xmlns="http://www.w3.org/1999/xhtml">
      Dispensed 30 tablets = 30 day supply of anastrozole 1 MG Oral Tablet [Arimidex]
    </div>
  </text>

  <status value="completed"/>

  <patient>
    <reference value="Patient/1157764"/>
  </patient>

  <authorizingPrescription>
    <reference value="MedicationOrder/128"/>
  </authorizingPrescription>

  <quantity>
      <value value="30"/>
      <unit value="tablets"/>
      <system value="http://unitsofmeasure.org"/>
      <code value="{tablets}"/>
  </quantity>

  <daysSupply>
      <value value="30" />
      <unit value="days" />
      <system value="http://unitsofmeasure.org" />
      <code value="d" />
  </daysSupply>

  <medicationCodeableConcept>
    <coding>
        <system value="http://www.nlm.nih.gov/research/umls/rxnorm"/>
        <code value="151124"/>
        <display value="anastrozole 1 MG Oral Tablet [Arimidex]"/>
    </coding>
    <text value="anastrozole 1 MG Oral Tablet [Arimidex]"/>
  </medicationCodeableConcept>

  <whenHandedOver value="2005-05-06"/>

</MedicationDispense>

  </resource>
  <request>
    <method value="POST"/>
    <url value="MedicationDispense/926"/>
  </request>
</entry>
<entry>
  <resource>
    
    
<MedicationDispense>
  <id value="933"/>
  <!--  insert contents here  -->
   <text>
    <status value="generated"/>
    <div xmlns="http://www.w3.org/1999/xhtml">
      Dispensed 30 tablets = 30 day supply of anastrozole 1 MG Oral Tablet [Arimidex]
    </div>
  </text>

  <status value="completed"/>

  <patient>
    <reference value="Patient/1157764"/>
  </patient>

  <authorizingPrescription>
    <reference value="MedicationOrder/128"/>
  </authorizingPrescription>

  <quantity>
      <value value="30"/>
      <unit value="tablets"/>
      <system value="http://unitsofmeasure.org"/>
      <code value="{tablets}"/>
  </quantity>

  <daysSupply>
      <value value="30" />
      <unit value="days" />
      <system value="http://unitsofmeasure.org" />
      <code value="d" />
  </daysSupply>

  <medicationCodeableConcept>
    <coding>
        <system value="http://www.nlm.nih.gov/research/umls/rxnorm"/>
        <code value="151124"/>
        <display value="anastrozole 1 MG Oral Tablet [Arimidex]"/>
    </coding>
    <text value="anastrozole 1 MG Oral Tablet [Arimidex]"/>
  </medicationCodeableConcept>

  <whenHandedOver value="2005-12-02"/>

</MedicationDispense>

  </resource>
  <request>
    <method value="POST"/>
    <url value="MedicationDispense/933"/>
  </request>
</entry>
<entry>
  <resource>
    
    
<MedicationDispense>
  <id value="923"/>
  <!--  insert contents here  -->
   <text>
    <status value="generated"/>
    <div xmlns="http://www.w3.org/1999/xhtml">
      Dispensed 30 tablets = 30 day supply of anastrozole 1 MG Oral Tablet [Arimidex]
    </div>
  </text>

  <status value="completed"/>

  <patient>
    <reference value="Patient/1157764"/>
  </patient>

  <authorizingPrescription>
    <reference value="MedicationOrder/128"/>
  </authorizingPrescription>

  <quantity>
      <value value="30"/>
      <unit value="tablets"/>
      <system value="http://unitsofmeasure.org"/>
      <code value="{tablets}"/>
  </quantity>

  <daysSupply>
      <value value="30" />
      <unit value="days" />
      <system value="http://unitsofmeasure.org" />
      <code value="d" />
  </daysSupply>

  <medicationCodeableConcept>
    <coding>
        <system value="http://www.nlm.nih.gov/research/umls/rxnorm"/>
        <code value="151124"/>
        <display value="anastrozole 1 MG Oral Tablet [Arimidex]"/>
    </coding>
    <text value="anastrozole 1 MG Oral Tablet [Arimidex]"/>
  </medicationCodeableConcept>

  <whenHandedOver value="2005-02-06"/>

</MedicationDispense>

  </resource>
  <request>
    <method value="POST"/>
    <url value="MedicationDispense/923"/>
  </request>
</entry>
<entry>
  <resource>
    
    
<MedicationDispense>
  <id value="919"/>
  <!--  insert contents here  -->
   <text>
    <status value="generated"/>
    <div xmlns="http://www.w3.org/1999/xhtml">
      Dispensed 30 tablets = 30 day supply of anastrozole 1 MG Oral Tablet [Arimidex]
    </div>
  </text>

  <status value="completed"/>

  <patient>
    <reference value="Patient/1157764"/>
  </patient>

  <authorizingPrescription>
    <reference value="MedicationOrder/128"/>
  </authorizingPrescription>

  <quantity>
      <value value="30"/>
      <unit value="tablets"/>
      <system value="http://unitsofmeasure.org"/>
      <code value="{tablets}"/>
  </quantity>

  <daysSupply>
      <value value="30" />
      <unit value="days" />
      <system value="http://unitsofmeasure.org" />
      <code value="d" />
  </daysSupply>

  <medicationCodeableConcept>
    <coding>
        <system value="http://www.nlm.nih.gov/research/umls/rxnorm"/>
        <code value="151124"/>
        <display value="anastrozole 1 MG Oral Tablet [Arimidex]"/>
    </coding>
    <text value="anastrozole 1 MG Oral Tablet [Arimidex]"/>
  </medicationCodeableConcept>

  <whenHandedOver value="2004-08-28"/>

</MedicationDispense>

  </resource>
  <request>
    <method value="POST"/>
    <url value="MedicationDispense/919"/>
  </request>
</entry>
<entry>
  <resource>
    
    
<MedicationDispense>
  <id value="918"/>
  <!--  insert contents here  -->
   <text>
    <status value="generated"/>
    <div xmlns="http://www.w3.org/1999/xhtml">
      Dispensed 30 tablets = 30 day supply of anastrozole 1 MG Oral Tablet [Arimidex]
    </div>
  </text>

  <status value="completed"/>

  <patient>
    <reference value="Patient/1157764"/>
  </patient>

  <authorizingPrescription>
    <reference value="MedicationOrder/128"/>
  </authorizingPrescription>

  <quantity>
      <value value="30"/>
      <unit value="tablets"/>
      <system value="http://unitsofmeasure.org"/>
      <code value="{tablets}"/>
  </quantity>

  <daysSupply>
      <value value="30" />
      <unit value="days" />
      <system value="http://unitsofmeasure.org" />
      <code value="d" />
  </daysSupply>

  <medicationCodeableConcept>
    <coding>
        <system value="http://www.nlm.nih.gov/research/umls/rxnorm"/>
        <code value="151124"/>
        <display value="anastrozole 1 MG Oral Tablet [Arimidex]"/>
    </coding>
    <text value="anastrozole 1 MG Oral Tablet [Arimidex]"/>
  </medicationCodeableConcept>

  <whenHandedOver value="2004-07-28"/>

</MedicationDispense>

  </resource>
  <request>
    <method value="POST"/>
    <url value="MedicationDispense/918"/>
  </request>
</entry>
<entry>
  <resource>
    
    
<MedicationDispense>
  <id value="932"/>
  <!--  insert contents here  -->
   <text>
    <status value="generated"/>
    <div xmlns="http://www.w3.org/1999/xhtml">
      Dispensed 30 tablets = 30 day supply of anastrozole 1 MG Oral Tablet [Arimidex]
    </div>
  </text>

  <status value="completed"/>

  <patient>
    <reference value="Patient/1157764"/>
  </patient>

  <authorizingPrescription>
    <reference value="MedicationOrder/128"/>
  </authorizingPrescription>

  <quantity>
      <value value="30"/>
      <unit value="tablets"/>
      <system value="http://unitsofmeasure.org"/>
      <code value="{tablets}"/>
  </quantity>

  <daysSupply>
      <value value="30" />
      <unit value="days" />
      <system value="http://unitsofmeasure.org" />
      <code value="d" />
  </daysSupply>

  <medicationCodeableConcept>
    <coding>
        <system value="http://www.nlm.nih.gov/research/umls/rxnorm"/>
        <code value="151124"/>
        <display value="anastrozole 1 MG Oral Tablet [Arimidex]"/>
    </coding>
    <text value="anastrozole 1 MG Oral Tablet [Arimidex]"/>
  </medicationCodeableConcept>

  <whenHandedOver value="2005-11-02"/>

</MedicationDispense>

  </resource>
  <request>
    <method value="POST"/>
    <url value="MedicationDispense/932"/>
  </request>
</entry>
<entry>
  <resource>
    
    
<MedicationDispense>
  <id value="922"/>
  <!--  insert contents here  -->
   <text>
    <status value="generated"/>
    <div xmlns="http://www.w3.org/1999/xhtml">
      Dispensed 30 tablets = 30 day supply of anastrozole 1 MG Oral Tablet [Arimidex]
    </div>
  </text>

  <status value="completed"/>

  <patient>
    <reference value="Patient/1157764"/>
  </patient>

  <authorizingPrescription>
    <reference value="MedicationOrder/128"/>
  </authorizingPrescription>

  <quantity>
      <value value="30"/>
      <unit value="tablets"/>
      <system value="http://unitsofmeasure.org"/>
      <code value="{tablets}"/>
  </quantity>

  <daysSupply>
      <value value="30" />
      <unit value="days" />
      <system value="http://unitsofmeasure.org" />
      <code value="d" />
  </daysSupply>

  <medicationCodeableConcept>
    <coding>
        <system value="http://www.nlm.nih.gov/research/umls/rxnorm"/>
        <code value="151124"/>
        <display value="anastrozole 1 MG Oral Tablet [Arimidex]"/>
    </coding>
    <text value="anastrozole 1 MG Oral Tablet [Arimidex]"/>
  </medicationCodeableConcept>

  <whenHandedOver value="2004-11-25"/>

</MedicationDispense>

  </resource>
  <request>
    <method value="POST"/>
    <url value="MedicationDispense/922"/>
  </request>
</entry>
<entry>
  <resource>
    
    
<MedicationDispense>
  <id value="910"/>
  <!--  insert contents here  -->
   <text>
    <status value="generated"/>
    <div xmlns="http://www.w3.org/1999/xhtml">
      Dispensed 30 tablets = 30 day supply of anastrozole 1 MG Oral Tablet [Arimidex]
    </div>
  </text>

  <status value="completed"/>

  <patient>
    <reference value="Patient/1157764"/>
  </patient>

  <authorizingPrescription>
    <reference value="MedicationOrder/128"/>
  </authorizingPrescription>

  <quantity>
      <value value="30"/>
      <unit value="tablets"/>
      <system value="http://unitsofmeasure.org"/>
      <code value="{tablets}"/>
  </quantity>

  <daysSupply>
      <value value="30" />
      <unit value="days" />
      <system value="http://unitsofmeasure.org" />
      <code value="d" />
  </daysSupply>

  <medicationCodeableConcept>
    <coding>
        <system value="http://www.nlm.nih.gov/research/umls/rxnorm"/>
        <code value="151124"/>
        <display value="anastrozole 1 MG Oral Tablet [Arimidex]"/>
    </coding>
    <text value="anastrozole 1 MG Oral Tablet [Arimidex]"/>
  </medicationCodeableConcept>

  <whenHandedOver value="2003-10-23"/>

</MedicationDispense>

  </resource>
  <request>
    <method value="POST"/>
    <url value="MedicationDispense/910"/>
  </request>
</entry>
<entry>
  <resource>
    
    
<MedicationDispense>
  <id value="914"/>
  <!--  insert contents here  -->
   <text>
    <status value="generated"/>
    <div xmlns="http://www.w3.org/1999/xhtml">
      Dispensed 30 tablets = 30 day supply of anastrozole 1 MG Oral Tablet [Arimidex]
    </div>
  </text>

  <status value="completed"/>

  <patient>
    <reference value="Patient/1157764"/>
  </patient>

  <authorizingPrescription>
    <reference value="MedicationOrder/128"/>
  </authorizingPrescription>

  <quantity>
      <value value="30"/>
      <unit value="tablets"/>
      <system value="http://unitsofmeasure.org"/>
      <code value="{tablets}"/>
  </quantity>

  <daysSupply>
      <value value="30" />
      <unit value="days" />
      <system value="http://unitsofmeasure.org" />
      <code value="d" />
  </daysSupply>

  <medicationCodeableConcept>
    <coding>
        <system value="http://www.nlm.nih.gov/research/umls/rxnorm"/>
        <code value="151124"/>
        <display value="anastrozole 1 MG Oral Tablet [Arimidex]"/>
    </coding>
    <text value="anastrozole 1 MG Oral Tablet [Arimidex]"/>
  </medicationCodeableConcept>

  <whenHandedOver value="2004-02-18"/>

</MedicationDispense>

  </resource>
  <request>
    <method value="POST"/>
    <url value="MedicationDispense/914"/>
  </request>
</entry>
<entry>
  <resource>
    
    
<MedicationDispense>
  <id value="929"/>
  <!--  insert contents here  -->
   <text>
    <status value="generated"/>
    <div xmlns="http://www.w3.org/1999/xhtml">
      Dispensed 30 tablets = 30 day supply of anastrozole 1 MG Oral Tablet [Arimidex]
    </div>
  </text>

  <status value="completed"/>

  <patient>
    <reference value="Patient/1157764"/>
  </patient>

  <authorizingPrescription>
    <reference value="MedicationOrder/128"/>
  </authorizingPrescription>

  <quantity>
      <value value="30"/>
      <unit value="tablets"/>
      <system value="http://unitsofmeasure.org"/>
      <code value="{tablets}"/>
  </quantity>

  <daysSupply>
      <value value="30" />
      <unit value="days" />
      <system value="http://unitsofmeasure.org" />
      <code value="d" />
  </daysSupply>

  <medicationCodeableConcept>
    <coding>
        <system value="http://www.nlm.nih.gov/research/umls/rxnorm"/>
        <code value="151124"/>
        <display value="anastrozole 1 MG Oral Tablet [Arimidex]"/>
    </coding>
    <text value="anastrozole 1 MG Oral Tablet [Arimidex]"/>
  </medicationCodeableConcept>

  <whenHandedOver value="2005-08-03"/>

</MedicationDispense>

  </resource>
  <request>
    <method value="POST"/>
    <url value="MedicationDispense/929"/>
  </request>
</entry>
<entry>
  <resource>
    
    
<MedicationDispense>
  <id value="935"/>
  <!--  insert contents here  -->
   <text>
    <status value="generated"/>
    <div xmlns="http://www.w3.org/1999/xhtml">
      Dispensed 30 tablets = 30 day supply of anastrozole 1 MG Oral Tablet [Arimidex]
    </div>
  </text>

  <status value="completed"/>

  <patient>
    <reference value="Patient/1157764"/>
  </patient>

  <authorizingPrescription>
    <reference value="MedicationOrder/128"/>
  </authorizingPrescription>

  <quantity>
      <value value="30"/>
      <unit value="tablets"/>
      <system value="http://unitsofmeasure.org"/>
      <code value="{tablets}"/>
  </quantity>

  <daysSupply>
      <value value="30" />
      <unit value="days" />
      <system value="http://unitsofmeasure.org" />
      <code value="d" />
  </daysSupply>

  <medicationCodeableConcept>
    <coding>
        <system value="http://www.nlm.nih.gov/research/umls/rxnorm"/>
        <code value="151124"/>
        <display value="anastrozole 1 MG Oral Tablet [Arimidex]"/>
    </coding>
    <text value="anastrozole 1 MG Oral Tablet [Arimidex]"/>
  </medicationCodeableConcept>

  <whenHandedOver value="2006-01-31"/>

</MedicationDispense>

  </resource>
  <request>
    <method value="POST"/>
    <url value="MedicationDispense/935"/>
  </request>
</entry>
<entry>
  <resource>
    
    
<MedicationOrder>
  <id value="129"/>
  <text>
    <status value="generated"/>
    <div xmlns="http://www.w3.org/1999/xhtml">
      {4 (Risedronate 35 MG Oral Tablet [Actonel]) } Pack [Actonel 35] (rxnorm: 877300)
    </div>
  </text>

  <status value="active" />
  <patient>
    <reference value="Patient/1157764"/>
  </patient>

  <medicationCodeableConcept>
    <coding>
        <system value="http://www.nlm.nih.gov/research/umls/rxnorm"/>
        <code value="877300"/>
        <display value="{4 (Risedronate 35 MG Oral Tablet [Actonel]) } Pack [Actonel 35]"/>
    </coding>
    <text value="{4 (Risedronate 35 MG Oral Tablet [Actonel]) } Pack [Actonel 35]"/>
  </medicationCodeableConcept>

  <dosageInstruction>
    <timing>
      <repeat>
        <boundsPeriod>
          <start value="2003-11-02"/>
        </boundsPeriod>
        <frequency value="1"/>
        <period value="1"/>
        <periodUnits value="wk"/>
      </repeat>
      
    </timing>
    <doseQuantity>
      <value value="1"/>
      <unit value="{tablet}"/>
      <system value="http://unitsofmeasure.org"/>
      <code value="{tablet}"/>
    </doseQuantity>
    
    <text value="1 weekly"/>
  </dosageInstruction>
  <dispenseRequest>
     <numberOfRepeatsAllowed value="1"/>
     
     <quantity>
        <value value="4"/>
        <unit value="{tablet}"/>
        <system value="http://unitsofmeasure.org"/>
        <code value="{tablet}"/>
     </quantity>
     
     <expectedSupplyDuration>
        <value value="30"/>
        <unit value="days"/>
        <system value="http://unitsofmeasure.org"/>
        <code value="d"/>
     </expectedSupplyDuration>
     
  </dispenseRequest>
  
</MedicationOrder>

  </resource>
  <request>
    <method value="POST"/>
    <url value="MedicationOrder/129"/>
  </request>
</entry>
<entry>
  <resource>
    
    
<MedicationDispense>
  <id value="898"/>
  <!--  insert contents here  -->
   <text>
    <status value="generated"/>
    <div xmlns="http://www.w3.org/1999/xhtml">
      Dispensed 4 tablets = 30 day supply of {4 (Risedronate 35 MG Oral Tablet [Actonel]) } Pack [Actonel 35]
    </div>
  </text>

  <status value="completed"/>

  <patient>
    <reference value="Patient/1157764"/>
  </patient>

  <authorizingPrescription>
    <reference value="MedicationOrder/129"/>
  </authorizingPrescription>

  <quantity>
      <value value="4"/>
      <unit value="tablets"/>
      <system value="http://unitsofmeasure.org"/>
      <code value="{tablets}"/>
  </quantity>

  <daysSupply>
      <value value="30" />
      <unit value="days" />
      <system value="http://unitsofmeasure.org" />
      <code value="d" />
  </daysSupply>

  <medicationCodeableConcept>
    <coding>
        <system value="http://www.nlm.nih.gov/research/umls/rxnorm"/>
        <code value="877300"/>
        <display value="{4 (Risedronate 35 MG Oral Tablet [Actonel]) } Pack [Actonel 35]"/>
    </coding>
    <text value="{4 (Risedronate 35 MG Oral Tablet [Actonel]) } Pack [Actonel 35]"/>
  </medicationCodeableConcept>

  <whenHandedOver value="2005-02-20"/>

</MedicationDispense>

  </resource>
  <request>
    <method value="POST"/>
    <url value="MedicationDispense/898"/>
  </request>
</entry>
<entry>
  <resource>
    
    
<MedicationDispense>
  <id value="889"/>
  <!--  insert contents here  -->
   <text>
    <status value="generated"/>
    <div xmlns="http://www.w3.org/1999/xhtml">
      Dispensed 4 tablets = 30 day supply of {4 (Risedronate 35 MG Oral Tablet [Actonel]) } Pack [Actonel 35]
    </div>
  </text>

  <status value="completed"/>

  <patient>
    <reference value="Patient/1157764"/>
  </patient>

  <authorizingPrescription>
    <reference value="MedicationOrder/129"/>
  </authorizingPrescription>

  <quantity>
      <value value="4"/>
      <unit value="tablets"/>
      <system value="http://unitsofmeasure.org"/>
      <code value="{tablets}"/>
  </quantity>

  <daysSupply>
      <value value="30" />
      <unit value="days" />
      <system value="http://unitsofmeasure.org" />
      <code value="d" />
  </daysSupply>

  <medicationCodeableConcept>
    <coding>
        <system value="http://www.nlm.nih.gov/research/umls/rxnorm"/>
        <code value="877300"/>
        <display value="{4 (Risedronate 35 MG Oral Tablet [Actonel]) } Pack [Actonel 35]"/>
    </coding>
    <text value="{4 (Risedronate 35 MG Oral Tablet [Actonel]) } Pack [Actonel 35]"/>
  </medicationCodeableConcept>

  <whenHandedOver value="2004-06-09"/>

</MedicationDispense>

  </resource>
  <request>
    <method value="POST"/>
    <url value="MedicationDispense/889"/>
  </request>
</entry>
<entry>
  <resource>
    
    
<MedicationDispense>
  <id value="908"/>
  <!--  insert contents here  -->
   <text>
    <status value="generated"/>
    <div xmlns="http://www.w3.org/1999/xhtml">
      Dispensed 4 tablets = 30 day supply of {4 (Risedronate 35 MG Oral Tablet [Actonel]) } Pack [Actonel 35]
    </div>
  </text>

  <status value="completed"/>

  <patient>
    <reference value="Patient/1157764"/>
  </patient>

  <authorizingPrescription>
    <reference value="MedicationOrder/129"/>
  </authorizingPrescription>

  <quantity>
      <value value="4"/>
      <unit value="tablets"/>
      <system value="http://unitsofmeasure.org"/>
      <code value="{tablets}"/>
  </quantity>

  <daysSupply>
      <value value="30" />
      <unit value="days" />
      <system value="http://unitsofmeasure.org" />
      <code value="d" />
  </daysSupply>

  <medicationCodeableConcept>
    <coding>
        <system value="http://www.nlm.nih.gov/research/umls/rxnorm"/>
        <code value="877300"/>
        <display value="{4 (Risedronate 35 MG Oral Tablet [Actonel]) } Pack [Actonel 35]"/>
    </coding>
    <text value="{4 (Risedronate 35 MG Oral Tablet [Actonel]) } Pack [Actonel 35]"/>
  </medicationCodeableConcept>

  <whenHandedOver value="2005-12-25"/>

</MedicationDispense>

  </resource>
  <request>
    <method value="POST"/>
    <url value="MedicationDispense/908"/>
  </request>
</entry>
<entry>
  <resource>
    
    
<MedicationDispense>
  <id value="890"/>
  <!--  insert contents here  -->
   <text>
    <status value="generated"/>
    <div xmlns="http://www.w3.org/1999/xhtml">
      Dispensed 4 tablets = 30 day supply of {4 (Risedronate 35 MG Oral Tablet [Actonel]) } Pack [Actonel 35]
    </div>
  </text>

  <status value="completed"/>

  <patient>
    <reference value="Patient/1157764"/>
  </patient>

  <authorizingPrescription>
    <reference value="MedicationOrder/129"/>
  </authorizingPrescription>

  <quantity>
      <value value="4"/>
      <unit value="tablets"/>
      <system value="http://unitsofmeasure.org"/>
      <code value="{tablets}"/>
  </quantity>

  <daysSupply>
      <value value="30" />
      <unit value="days" />
      <system value="http://unitsofmeasure.org" />
      <code value="d" />
  </daysSupply>

  <medicationCodeableConcept>
    <coding>
        <system value="http://www.nlm.nih.gov/research/umls/rxnorm"/>
        <code value="877300"/>
        <display value="{4 (Risedronate 35 MG Oral Tablet [Actonel]) } Pack [Actonel 35]"/>
    </coding>
    <text value="{4 (Risedronate 35 MG Oral Tablet [Actonel]) } Pack [Actonel 35]"/>
  </medicationCodeableConcept>

  <whenHandedOver value="2004-07-06"/>

</MedicationDispense>

  </resource>
  <request>
    <method value="POST"/>
    <url value="MedicationDispense/890"/>
  </request>
</entry>
<entry>
  <resource>
    
    
<MedicationDispense>
  <id value="891"/>
  <!--  insert contents here  -->
   <text>
    <status value="generated"/>
    <div xmlns="http://www.w3.org/1999/xhtml">
      Dispensed 4 tablets = 30 day supply of {4 (Risedronate 35 MG Oral Tablet [Actonel]) } Pack [Actonel 35]
    </div>
  </text>

  <status value="completed"/>

  <patient>
    <reference value="Patient/1157764"/>
  </patient>

  <authorizingPrescription>
    <reference value="MedicationOrder/129"/>
  </authorizingPrescription>

  <quantity>
      <value value="4"/>
      <unit value="tablets"/>
      <system value="http://unitsofmeasure.org"/>
      <code value="{tablets}"/>
  </quantity>

  <daysSupply>
      <value value="30" />
      <unit value="days" />
      <system value="http://unitsofmeasure.org" />
      <code value="d" />
  </daysSupply>

  <medicationCodeableConcept>
    <coding>
        <system value="http://www.nlm.nih.gov/research/umls/rxnorm"/>
        <code value="877300"/>
        <display value="{4 (Risedronate 35 MG Oral Tablet [Actonel]) } Pack [Actonel 35]"/>
    </coding>
    <text value="{4 (Risedronate 35 MG Oral Tablet [Actonel]) } Pack [Actonel 35]"/>
  </medicationCodeableConcept>

  <whenHandedOver value="2004-08-04"/>

</MedicationDispense>

  </resource>
  <request>
    <method value="POST"/>
    <url value="MedicationDispense/891"/>
  </request>
</entry>
<entry>
  <resource>
    
    
<MedicationDispense>
  <id value="902"/>
  <!--  insert contents here  -->
   <text>
    <status value="generated"/>
    <div xmlns="http://www.w3.org/1999/xhtml">
      Dispensed 4 tablets = 30 day supply of {4 (Risedronate 35 MG Oral Tablet [Actonel]) } Pack [Actonel 35]
    </div>
  </text>

  <status value="completed"/>

  <patient>
    <reference value="Patient/1157764"/>
  </patient>

  <authorizingPrescription>
    <reference value="MedicationOrder/129"/>
  </authorizingPrescription>

  <quantity>
      <value value="4"/>
      <unit value="tablets"/>
      <system value="http://unitsofmeasure.org"/>
      <code value="{tablets}"/>
  </quantity>

  <daysSupply>
      <value value="30" />
      <unit value="days" />
      <system value="http://unitsofmeasure.org" />
      <code value="d" />
  </daysSupply>

  <medicationCodeableConcept>
    <coding>
        <system value="http://www.nlm.nih.gov/research/umls/rxnorm"/>
        <code value="877300"/>
        <display value="{4 (Risedronate 35 MG Oral Tablet [Actonel]) } Pack [Actonel 35]"/>
    </coding>
    <text value="{4 (Risedronate 35 MG Oral Tablet [Actonel]) } Pack [Actonel 35]"/>
  </medicationCodeableConcept>

  <whenHandedOver value="2005-06-08"/>

</MedicationDispense>

  </resource>
  <request>
    <method value="POST"/>
    <url value="MedicationDispense/902"/>
  </request>
</entry>
<entry>
  <resource>
    
    
<MedicationDispense>
  <id value="899"/>
  <!--  insert contents here  -->
   <text>
    <status value="generated"/>
    <div xmlns="http://www.w3.org/1999/xhtml">
      Dispensed 4 tablets = 30 day supply of {4 (Risedronate 35 MG Oral Tablet [Actonel]) } Pack [Actonel 35]
    </div>
  </text>

  <status value="completed"/>

  <patient>
    <reference value="Patient/1157764"/>
  </patient>

  <authorizingPrescription>
    <reference value="MedicationOrder/129"/>
  </authorizingPrescription>

  <quantity>
      <value value="4"/>
      <unit value="tablets"/>
      <system value="http://unitsofmeasure.org"/>
      <code value="{tablets}"/>
  </quantity>

  <daysSupply>
      <value value="30" />
      <unit value="days" />
      <system value="http://unitsofmeasure.org" />
      <code value="d" />
  </daysSupply>

  <medicationCodeableConcept>
    <coding>
        <system value="http://www.nlm.nih.gov/research/umls/rxnorm"/>
        <code value="877300"/>
        <display value="{4 (Risedronate 35 MG Oral Tablet [Actonel]) } Pack [Actonel 35]"/>
    </coding>
    <text value="{4 (Risedronate 35 MG Oral Tablet [Actonel]) } Pack [Actonel 35]"/>
  </medicationCodeableConcept>

  <whenHandedOver value="2005-03-19"/>

</MedicationDispense>

  </resource>
  <request>
    <method value="POST"/>
    <url value="MedicationDispense/899"/>
  </request>
</entry>
<entry>
  <resource>
    
    
<MedicationDispense>
  <id value="884"/>
  <!--  insert contents here  -->
   <text>
    <status value="generated"/>
    <div xmlns="http://www.w3.org/1999/xhtml">
      Dispensed 4 tablets = 30 day supply of {4 (Risedronate 35 MG Oral Tablet [Actonel]) } Pack [Actonel 35]
    </div>
  </text>

  <status value="completed"/>

  <patient>
    <reference value="Patient/1157764"/>
  </patient>

  <authorizingPrescription>
    <reference value="MedicationOrder/129"/>
  </authorizingPrescription>

  <quantity>
      <value value="4"/>
      <unit value="tablets"/>
      <system value="http://unitsofmeasure.org"/>
      <code value="{tablets}"/>
  </quantity>

  <daysSupply>
      <value value="30" />
      <unit value="days" />
      <system value="http://unitsofmeasure.org" />
      <code value="d" />
  </daysSupply>

  <medicationCodeableConcept>
    <coding>
        <system value="http://www.nlm.nih.gov/research/umls/rxnorm"/>
        <code value="877300"/>
        <display value="{4 (Risedronate 35 MG Oral Tablet [Actonel]) } Pack [Actonel 35]"/>
    </coding>
    <text value="{4 (Risedronate 35 MG Oral Tablet [Actonel]) } Pack [Actonel 35]"/>
  </medicationCodeableConcept>

  <whenHandedOver value="2004-01-20"/>

</MedicationDispense>

  </resource>
  <request>
    <method value="POST"/>
    <url value="MedicationDispense/884"/>
  </request>
</entry>
<entry>
  <resource>
    
    
<MedicationDispense>
  <id value="892"/>
  <!--  insert contents here  -->
   <text>
    <status value="generated"/>
    <div xmlns="http://www.w3.org/1999/xhtml">
      Dispensed 4 tablets = 30 day supply of {4 (Risedronate 35 MG Oral Tablet [Actonel]) } Pack [Actonel 35]
    </div>
  </text>

  <status value="completed"/>

  <patient>
    <reference value="Patient/1157764"/>
  </patient>

  <authorizingPrescription>
    <reference value="MedicationOrder/129"/>
  </authorizingPrescription>

  <quantity>
      <value value="4"/>
      <unit value="tablets"/>
      <system value="http://unitsofmeasure.org"/>
      <code value="{tablets}"/>
  </quantity>

  <daysSupply>
      <value value="30" />
      <unit value="days" />
      <system value="http://unitsofmeasure.org" />
      <code value="d" />
  </daysSupply>

  <medicationCodeableConcept>
    <coding>
        <system value="http://www.nlm.nih.gov/research/umls/rxnorm"/>
        <code value="877300"/>
        <display value="{4 (Risedronate 35 MG Oral Tablet [Actonel]) } Pack [Actonel 35]"/>
    </coding>
    <text value="{4 (Risedronate 35 MG Oral Tablet [Actonel]) } Pack [Actonel 35]"/>
  </medicationCodeableConcept>

  <whenHandedOver value="2004-09-04"/>

</MedicationDispense>

  </resource>
  <request>
    <method value="POST"/>
    <url value="MedicationDispense/892"/>
  </request>
</entry>
<entry>
  <resource>
    
    
<MedicationDispense>
  <id value="905"/>
  <!--  insert contents here  -->
   <text>
    <status value="generated"/>
    <div xmlns="http://www.w3.org/1999/xhtml">
      Dispensed 4 tablets = 30 day supply of {4 (Risedronate 35 MG Oral Tablet [Actonel]) } Pack [Actonel 35]
    </div>
  </text>

  <status value="completed"/>

  <patient>
    <reference value="Patient/1157764"/>
  </patient>

  <authorizingPrescription>
    <reference value="MedicationOrder/129"/>
  </authorizingPrescription>

  <quantity>
      <value value="4"/>
      <unit value="tablets"/>
      <system value="http://unitsofmeasure.org"/>
      <code value="{tablets}"/>
  </quantity>

  <daysSupply>
      <value value="30" />
      <unit value="days" />
      <system value="http://unitsofmeasure.org" />
      <code value="d" />
  </daysSupply>

  <medicationCodeableConcept>
    <coding>
        <system value="http://www.nlm.nih.gov/research/umls/rxnorm"/>
        <code value="877300"/>
        <display value="{4 (Risedronate 35 MG Oral Tablet [Actonel]) } Pack [Actonel 35]"/>
    </coding>
    <text value="{4 (Risedronate 35 MG Oral Tablet [Actonel]) } Pack [Actonel 35]"/>
  </medicationCodeableConcept>

  <whenHandedOver value="2005-09-02"/>

</MedicationDispense>

  </resource>
  <request>
    <method value="POST"/>
    <url value="MedicationDispense/905"/>
  </request>
</entry>
<entry>
  <resource>
    
    
<MedicationDispense>
  <id value="886"/>
  <!--  insert contents here  -->
   <text>
    <status value="generated"/>
    <div xmlns="http://www.w3.org/1999/xhtml">
      Dispensed 4 tablets = 30 day supply of {4 (Risedronate 35 MG Oral Tablet [Actonel]) } Pack [Actonel 35]
    </div>
  </text>

  <status value="completed"/>

  <patient>
    <reference value="Patient/1157764"/>
  </patient>

  <authorizingPrescription>
    <reference value="MedicationOrder/129"/>
  </authorizingPrescription>

  <quantity>
      <value value="4"/>
      <unit value="tablets"/>
      <system value="http://unitsofmeasure.org"/>
      <code value="{tablets}"/>
  </quantity>

  <daysSupply>
      <value value="30" />
      <unit value="days" />
      <system value="http://unitsofmeasure.org" />
      <code value="d" />
  </daysSupply>

  <medicationCodeableConcept>
    <coding>
        <system value="http://www.nlm.nih.gov/research/umls/rxnorm"/>
        <code value="877300"/>
        <display value="{4 (Risedronate 35 MG Oral Tablet [Actonel]) } Pack [Actonel 35]"/>
    </coding>
    <text value="{4 (Risedronate 35 MG Oral Tablet [Actonel]) } Pack [Actonel 35]"/>
  </medicationCodeableConcept>

  <whenHandedOver value="2004-03-20"/>

</MedicationDispense>

  </resource>
  <request>
    <method value="POST"/>
    <url value="MedicationDispense/886"/>
  </request>
</entry>
<entry>
  <resource>
    
    
<MedicationDispense>
  <id value="904"/>
  <!--  insert contents here  -->
   <text>
    <status value="generated"/>
    <div xmlns="http://www.w3.org/1999/xhtml">
      Dispensed 4 tablets = 30 day supply of {4 (Risedronate 35 MG Oral Tablet [Actonel]) } Pack [Actonel 35]
    </div>
  </text>

  <status value="completed"/>

  <patient>
    <reference value="Patient/1157764"/>
  </patient>

  <authorizingPrescription>
    <reference value="MedicationOrder/129"/>
  </authorizingPrescription>

  <quantity>
      <value value="4"/>
      <unit value="tablets"/>
      <system value="http://unitsofmeasure.org"/>
      <code value="{tablets}"/>
  </quantity>

  <daysSupply>
      <value value="30" />
      <unit value="days" />
      <system value="http://unitsofmeasure.org" />
      <code value="d" />
  </daysSupply>

  <medicationCodeableConcept>
    <coding>
        <system value="http://www.nlm.nih.gov/research/umls/rxnorm"/>
        <code value="877300"/>
        <display value="{4 (Risedronate 35 MG Oral Tablet [Actonel]) } Pack [Actonel 35]"/>
    </coding>
    <text value="{4 (Risedronate 35 MG Oral Tablet [Actonel]) } Pack [Actonel 35]"/>
  </medicationCodeableConcept>

  <whenHandedOver value="2005-08-03"/>

</MedicationDispense>

  </resource>
  <request>
    <method value="POST"/>
    <url value="MedicationDispense/904"/>
  </request>
</entry>
<entry>
  <resource>
    
    
<MedicationDispense>
  <id value="882"/>
  <!--  insert contents here  -->
   <text>
    <status value="generated"/>
    <div xmlns="http://www.w3.org/1999/xhtml">
      Dispensed 4 tablets = 30 day supply of {4 (Risedronate 35 MG Oral Tablet [Actonel]) } Pack [Actonel 35]
    </div>
  </text>

  <status value="completed"/>

  <patient>
    <reference value="Patient/1157764"/>
  </patient>

  <authorizingPrescription>
    <reference value="MedicationOrder/129"/>
  </authorizingPrescription>

  <quantity>
      <value value="4"/>
      <unit value="tablets"/>
      <system value="http://unitsofmeasure.org"/>
      <code value="{tablets}"/>
  </quantity>

  <daysSupply>
      <value value="30" />
      <unit value="days" />
      <system value="http://unitsofmeasure.org" />
      <code value="d" />
  </daysSupply>

  <medicationCodeableConcept>
    <coding>
        <system value="http://www.nlm.nih.gov/research/umls/rxnorm"/>
        <code value="877300"/>
        <display value="{4 (Risedronate 35 MG Oral Tablet [Actonel]) } Pack [Actonel 35]"/>
    </coding>
    <text value="{4 (Risedronate 35 MG Oral Tablet [Actonel]) } Pack [Actonel 35]"/>
  </medicationCodeableConcept>

  <whenHandedOver value="2003-11-30"/>

</MedicationDispense>

  </resource>
  <request>
    <method value="POST"/>
    <url value="MedicationDispense/882"/>
  </request>
</entry>
<entry>
  <resource>
    
    
<MedicationDispense>
  <id value="885"/>
  <!--  insert contents here  -->
   <text>
    <status value="generated"/>
    <div xmlns="http://www.w3.org/1999/xhtml">
      Dispensed 4 tablets = 30 day supply of {4 (Risedronate 35 MG Oral Tablet [Actonel]) } Pack [Actonel 35]
    </div>
  </text>

  <status value="completed"/>

  <patient>
    <reference value="Patient/1157764"/>
  </patient>

  <authorizingPrescription>
    <reference value="MedicationOrder/129"/>
  </authorizingPrescription>

  <quantity>
      <value value="4"/>
      <unit value="tablets"/>
      <system value="http://unitsofmeasure.org"/>
      <code value="{tablets}"/>
  </quantity>

  <daysSupply>
      <value value="30" />
      <unit value="days" />
      <system value="http://unitsofmeasure.org" />
      <code value="d" />
  </daysSupply>

  <medicationCodeableConcept>
    <coding>
        <system value="http://www.nlm.nih.gov/research/umls/rxnorm"/>
        <code value="877300"/>
        <display value="{4 (Risedronate 35 MG Oral Tablet [Actonel]) } Pack [Actonel 35]"/>
    </coding>
    <text value="{4 (Risedronate 35 MG Oral Tablet [Actonel]) } Pack [Actonel 35]"/>
  </medicationCodeableConcept>

  <whenHandedOver value="2004-02-18"/>

</MedicationDispense>

  </resource>
  <request>
    <method value="POST"/>
    <url value="MedicationDispense/885"/>
  </request>
</entry>
<entry>
  <resource>
    
    
<MedicationDispense>
  <id value="901"/>
  <!--  insert contents here  -->
   <text>
    <status value="generated"/>
    <div xmlns="http://www.w3.org/1999/xhtml">
      Dispensed 4 tablets = 30 day supply of {4 (Risedronate 35 MG Oral Tablet [Actonel]) } Pack [Actonel 35]
    </div>
  </text>

  <status value="completed"/>

  <patient>
    <reference value="Patient/1157764"/>
  </patient>

  <authorizingPrescription>
    <reference value="MedicationOrder/129"/>
  </authorizingPrescription>

  <quantity>
      <value value="4"/>
      <unit value="tablets"/>
      <system value="http://unitsofmeasure.org"/>
      <code value="{tablets}"/>
  </quantity>

  <daysSupply>
      <value value="30" />
      <unit value="days" />
      <system value="http://unitsofmeasure.org" />
      <code value="d" />
  </daysSupply>

  <medicationCodeableConcept>
    <coding>
        <system value="http://www.nlm.nih.gov/research/umls/rxnorm"/>
        <code value="877300"/>
        <display value="{4 (Risedronate 35 MG Oral Tablet [Actonel]) } Pack [Actonel 35]"/>
    </coding>
    <text value="{4 (Risedronate 35 MG Oral Tablet [Actonel]) } Pack [Actonel 35]"/>
  </medicationCodeableConcept>

  <whenHandedOver value="2005-05-15"/>

</MedicationDispense>

  </resource>
  <request>
    <method value="POST"/>
    <url value="MedicationDispense/901"/>
  </request>
</entry>
<entry>
  <resource>
    
    
<MedicationDispense>
  <id value="896"/>
  <!--  insert contents here  -->
   <text>
    <status value="generated"/>
    <div xmlns="http://www.w3.org/1999/xhtml">
      Dispensed 4 tablets = 30 day supply of {4 (Risedronate 35 MG Oral Tablet [Actonel]) } Pack [Actonel 35]
    </div>
  </text>

  <status value="completed"/>

  <patient>
    <reference value="Patient/1157764"/>
  </patient>

  <authorizingPrescription>
    <reference value="MedicationOrder/129"/>
  </authorizingPrescription>

  <quantity>
      <value value="4"/>
      <unit value="tablets"/>
      <system value="http://unitsofmeasure.org"/>
      <code value="{tablets}"/>
  </quantity>

  <daysSupply>
      <value value="30" />
      <unit value="days" />
      <system value="http://unitsofmeasure.org" />
      <code value="d" />
  </daysSupply>

  <medicationCodeableConcept>
    <coding>
        <system value="http://www.nlm.nih.gov/research/umls/rxnorm"/>
        <code value="877300"/>
        <display value="{4 (Risedronate 35 MG Oral Tablet [Actonel]) } Pack [Actonel 35]"/>
    </coding>
    <text value="{4 (Risedronate 35 MG Oral Tablet [Actonel]) } Pack [Actonel 35]"/>
  </medicationCodeableConcept>

  <whenHandedOver value="2004-12-26"/>

</MedicationDispense>

  </resource>
  <request>
    <method value="POST"/>
    <url value="MedicationDispense/896"/>
  </request>
</entry>
<entry>
  <resource>
    
    
<MedicationDispense>
  <id value="895"/>
  <!--  insert contents here  -->
   <text>
    <status value="generated"/>
    <div xmlns="http://www.w3.org/1999/xhtml">
      Dispensed 4 tablets = 30 day supply of {4 (Risedronate 35 MG Oral Tablet [Actonel]) } Pack [Actonel 35]
    </div>
  </text>

  <status value="completed"/>

  <patient>
    <reference value="Patient/1157764"/>
  </patient>

  <authorizingPrescription>
    <reference value="MedicationOrder/129"/>
  </authorizingPrescription>

  <quantity>
      <value value="4"/>
      <unit value="tablets"/>
      <system value="http://unitsofmeasure.org"/>
      <code value="{tablets}"/>
  </quantity>

  <daysSupply>
      <value value="30" />
      <unit value="days" />
      <system value="http://unitsofmeasure.org" />
      <code value="d" />
  </daysSupply>

  <medicationCodeableConcept>
    <coding>
        <system value="http://www.nlm.nih.gov/research/umls/rxnorm"/>
        <code value="877300"/>
        <display value="{4 (Risedronate 35 MG Oral Tablet [Actonel]) } Pack [Actonel 35]"/>
    </coding>
    <text value="{4 (Risedronate 35 MG Oral Tablet [Actonel]) } Pack [Actonel 35]"/>
  </medicationCodeableConcept>

  <whenHandedOver value="2004-11-25"/>

</MedicationDispense>

  </resource>
  <request>
    <method value="POST"/>
    <url value="MedicationDispense/895"/>
  </request>
</entry>
<entry>
  <resource>
    
    
<MedicationDispense>
  <id value="883"/>
  <!--  insert contents here  -->
   <text>
    <status value="generated"/>
    <div xmlns="http://www.w3.org/1999/xhtml">
      Dispensed 4 tablets = 30 day supply of {4 (Risedronate 35 MG Oral Tablet [Actonel]) } Pack [Actonel 35]
    </div>
  </text>

  <status value="completed"/>

  <patient>
    <reference value="Patient/1157764"/>
  </patient>

  <authorizingPrescription>
    <reference value="MedicationOrder/129"/>
  </authorizingPrescription>

  <quantity>
      <value value="4"/>
      <unit value="tablets"/>
      <system value="http://unitsofmeasure.org"/>
      <code value="{tablets}"/>
  </quantity>

  <daysSupply>
      <value value="30" />
      <unit value="days" />
      <system value="http://unitsofmeasure.org" />
      <code value="d" />
  </daysSupply>

  <medicationCodeableConcept>
    <coding>
        <system value="http://www.nlm.nih.gov/research/umls/rxnorm"/>
        <code value="877300"/>
        <display value="{4 (Risedronate 35 MG Oral Tablet [Actonel]) } Pack [Actonel 35]"/>
    </coding>
    <text value="{4 (Risedronate 35 MG Oral Tablet [Actonel]) } Pack [Actonel 35]"/>
  </medicationCodeableConcept>

  <whenHandedOver value="2003-12-28"/>

</MedicationDispense>

  </resource>
  <request>
    <method value="POST"/>
    <url value="MedicationDispense/883"/>
  </request>
</entry>
<entry>
  <resource>
    
    
<MedicationDispense>
  <id value="893"/>
  <!--  insert contents here  -->
   <text>
    <status value="generated"/>
    <div xmlns="http://www.w3.org/1999/xhtml">
      Dispensed 4 tablets = 30 day supply of {4 (Risedronate 35 MG Oral Tablet [Actonel]) } Pack [Actonel 35]
    </div>
  </text>

  <status value="completed"/>

  <patient>
    <reference value="Patient/1157764"/>
  </patient>

  <authorizingPrescription>
    <reference value="MedicationOrder/129"/>
  </authorizingPrescription>

  <quantity>
      <value value="4"/>
      <unit value="tablets"/>
      <system value="http://unitsofmeasure.org"/>
      <code value="{tablets}"/>
  </quantity>

  <daysSupply>
      <value value="30" />
      <unit value="days" />
      <system value="http://unitsofmeasure.org" />
      <code value="d" />
  </daysSupply>

  <medicationCodeableConcept>
    <coding>
        <system value="http://www.nlm.nih.gov/research/umls/rxnorm"/>
        <code value="877300"/>
        <display value="{4 (Risedronate 35 MG Oral Tablet [Actonel]) } Pack [Actonel 35]"/>
    </coding>
    <text value="{4 (Risedronate 35 MG Oral Tablet [Actonel]) } Pack [Actonel 35]"/>
  </medicationCodeableConcept>

  <whenHandedOver value="2004-09-28"/>

</MedicationDispense>

  </resource>
  <request>
    <method value="POST"/>
    <url value="MedicationDispense/893"/>
  </request>
</entry>
<entry>
  <resource>
    
    
<MedicationDispense>
  <id value="907"/>
  <!--  insert contents here  -->
   <text>
    <status value="generated"/>
    <div xmlns="http://www.w3.org/1999/xhtml">
      Dispensed 4 tablets = 30 day supply of {4 (Risedronate 35 MG Oral Tablet [Actonel]) } Pack [Actonel 35]
    </div>
  </text>

  <status value="completed"/>

  <patient>
    <reference value="Patient/1157764"/>
  </patient>

  <authorizingPrescription>
    <reference value="MedicationOrder/129"/>
  </authorizingPrescription>

  <quantity>
      <value value="4"/>
      <unit value="tablets"/>
      <system value="http://unitsofmeasure.org"/>
      <code value="{tablets}"/>
  </quantity>

  <daysSupply>
      <value value="30" />
      <unit value="days" />
      <system value="http://unitsofmeasure.org" />
      <code value="d" />
  </daysSupply>

  <medicationCodeableConcept>
    <coding>
        <system value="http://www.nlm.nih.gov/research/umls/rxnorm"/>
        <code value="877300"/>
        <display value="{4 (Risedronate 35 MG Oral Tablet [Actonel]) } Pack [Actonel 35]"/>
    </coding>
    <text value="{4 (Risedronate 35 MG Oral Tablet [Actonel]) } Pack [Actonel 35]"/>
  </medicationCodeableConcept>

  <whenHandedOver value="2005-11-27"/>

</MedicationDispense>

  </resource>
  <request>
    <method value="POST"/>
    <url value="MedicationDispense/907"/>
  </request>
</entry>
<entry>
  <resource>
    
    
<MedicationDispense>
  <id value="888"/>
  <!--  insert contents here  -->
   <text>
    <status value="generated"/>
    <div xmlns="http://www.w3.org/1999/xhtml">
      Dispensed 4 tablets = 30 day supply of {4 (Risedronate 35 MG Oral Tablet [Actonel]) } Pack [Actonel 35]
    </div>
  </text>

  <status value="completed"/>

  <patient>
    <reference value="Patient/1157764"/>
  </patient>

  <authorizingPrescription>
    <reference value="MedicationOrder/129"/>
  </authorizingPrescription>

  <quantity>
      <value value="4"/>
      <unit value="tablets"/>
      <system value="http://unitsofmeasure.org"/>
      <code value="{tablets}"/>
  </quantity>

  <daysSupply>
      <value value="30" />
      <unit value="days" />
      <system value="http://unitsofmeasure.org" />
      <code value="d" />
  </daysSupply>

  <medicationCodeableConcept>
    <coding>
        <system value="http://www.nlm.nih.gov/research/umls/rxnorm"/>
        <code value="877300"/>
        <display value="{4 (Risedronate 35 MG Oral Tablet [Actonel]) } Pack [Actonel 35]"/>
    </coding>
    <text value="{4 (Risedronate 35 MG Oral Tablet [Actonel]) } Pack [Actonel 35]"/>
  </medicationCodeableConcept>

  <whenHandedOver value="2004-05-10"/>

</MedicationDispense>

  </resource>
  <request>
    <method value="POST"/>
    <url value="MedicationDispense/888"/>
  </request>
</entry>
<entry>
  <resource>
    
    
<MedicationDispense>
  <id value="887"/>
  <!--  insert contents here  -->
   <text>
    <status value="generated"/>
    <div xmlns="http://www.w3.org/1999/xhtml">
      Dispensed 4 tablets = 30 day supply of {4 (Risedronate 35 MG Oral Tablet [Actonel]) } Pack [Actonel 35]
    </div>
  </text>

  <status value="completed"/>

  <patient>
    <reference value="Patient/1157764"/>
  </patient>

  <authorizingPrescription>
    <reference value="MedicationOrder/129"/>
  </authorizingPrescription>

  <quantity>
      <value value="4"/>
      <unit value="tablets"/>
      <system value="http://unitsofmeasure.org"/>
      <code value="{tablets}"/>
  </quantity>

  <daysSupply>
      <value value="30" />
      <unit value="days" />
      <system value="http://unitsofmeasure.org" />
      <code value="d" />
  </daysSupply>

  <medicationCodeableConcept>
    <coding>
        <system value="http://www.nlm.nih.gov/research/umls/rxnorm"/>
        <code value="877300"/>
        <display value="{4 (Risedronate 35 MG Oral Tablet [Actonel]) } Pack [Actonel 35]"/>
    </coding>
    <text value="{4 (Risedronate 35 MG Oral Tablet [Actonel]) } Pack [Actonel 35]"/>
  </medicationCodeableConcept>

  <whenHandedOver value="2004-04-19"/>

</MedicationDispense>

  </resource>
  <request>
    <method value="POST"/>
    <url value="MedicationDispense/887"/>
  </request>
</entry>
<entry>
  <resource>
    
    
<MedicationDispense>
  <id value="897"/>
  <!--  insert contents here  -->
   <text>
    <status value="generated"/>
    <div xmlns="http://www.w3.org/1999/xhtml">
      Dispensed 4 tablets = 30 day supply of {4 (Risedronate 35 MG Oral Tablet [Actonel]) } Pack [Actonel 35]
    </div>
  </text>

  <status value="completed"/>

  <patient>
    <reference value="Patient/1157764"/>
  </patient>

  <authorizingPrescription>
    <reference value="MedicationOrder/129"/>
  </authorizingPrescription>

  <quantity>
      <value value="4"/>
      <unit value="tablets"/>
      <system value="http://unitsofmeasure.org"/>
      <code value="{tablets}"/>
  </quantity>

  <daysSupply>
      <value value="30" />
      <unit value="days" />
      <system value="http://unitsofmeasure.org" />
      <code value="d" />
  </daysSupply>

  <medicationCodeableConcept>
    <coding>
        <system value="http://www.nlm.nih.gov/research/umls/rxnorm"/>
        <code value="877300"/>
        <display value="{4 (Risedronate 35 MG Oral Tablet [Actonel]) } Pack [Actonel 35]"/>
    </coding>
    <text value="{4 (Risedronate 35 MG Oral Tablet [Actonel]) } Pack [Actonel 35]"/>
  </medicationCodeableConcept>

  <whenHandedOver value="2005-01-23"/>

</MedicationDispense>

  </resource>
  <request>
    <method value="POST"/>
    <url value="MedicationDispense/897"/>
  </request>
</entry>
<entry>
  <resource>
    
    
<MedicationDispense>
  <id value="906"/>
  <!--  insert contents here  -->
   <text>
    <status value="generated"/>
    <div xmlns="http://www.w3.org/1999/xhtml">
      Dispensed 4 tablets = 30 day supply of {4 (Risedronate 35 MG Oral Tablet [Actonel]) } Pack [Actonel 35]
    </div>
  </text>

  <status value="completed"/>

  <patient>
    <reference value="Patient/1157764"/>
  </patient>

  <authorizingPrescription>
    <reference value="MedicationOrder/129"/>
  </authorizingPrescription>

  <quantity>
      <value value="4"/>
      <unit value="tablets"/>
      <system value="http://unitsofmeasure.org"/>
      <code value="{tablets}"/>
  </quantity>

  <daysSupply>
      <value value="30" />
      <unit value="days" />
      <system value="http://unitsofmeasure.org" />
      <code value="d" />
  </daysSupply>

  <medicationCodeableConcept>
    <coding>
        <system value="http://www.nlm.nih.gov/research/umls/rxnorm"/>
        <code value="877300"/>
        <display value="{4 (Risedronate 35 MG Oral Tablet [Actonel]) } Pack [Actonel 35]"/>
    </coding>
    <text value="{4 (Risedronate 35 MG Oral Tablet [Actonel]) } Pack [Actonel 35]"/>
  </medicationCodeableConcept>

  <whenHandedOver value="2005-10-30"/>

</MedicationDispense>

  </resource>
  <request>
    <method value="POST"/>
    <url value="MedicationDispense/906"/>
  </request>
</entry>
<entry>
  <resource>
    
    
<MedicationDispense>
  <id value="903"/>
  <!--  insert contents here  -->
   <text>
    <status value="generated"/>
    <div xmlns="http://www.w3.org/1999/xhtml">
      Dispensed 4 tablets = 30 day supply of {4 (Risedronate 35 MG Oral Tablet [Actonel]) } Pack [Actonel 35]
    </div>
  </text>

  <status value="completed"/>

  <patient>
    <reference value="Patient/1157764"/>
  </patient>

  <authorizingPrescription>
    <reference value="MedicationOrder/129"/>
  </authorizingPrescription>

  <quantity>
      <value value="4"/>
      <unit value="tablets"/>
      <system value="http://unitsofmeasure.org"/>
      <code value="{tablets}"/>
  </quantity>

  <daysSupply>
      <value value="30" />
      <unit value="days" />
      <system value="http://unitsofmeasure.org" />
      <code value="d" />
  </daysSupply>

  <medicationCodeableConcept>
    <coding>
        <system value="http://www.nlm.nih.gov/research/umls/rxnorm"/>
        <code value="877300"/>
        <display value="{4 (Risedronate 35 MG Oral Tablet [Actonel]) } Pack [Actonel 35]"/>
    </coding>
    <text value="{4 (Risedronate 35 MG Oral Tablet [Actonel]) } Pack [Actonel 35]"/>
  </medicationCodeableConcept>

  <whenHandedOver value="2005-07-04"/>

</MedicationDispense>

  </resource>
  <request>
    <method value="POST"/>
    <url value="MedicationDispense/903"/>
  </request>
</entry>
<entry>
  <resource>
    
    
<MedicationDispense>
  <id value="909"/>
  <!--  insert contents here  -->
   <text>
    <status value="generated"/>
    <div xmlns="http://www.w3.org/1999/xhtml">
      Dispensed 4 tablets = 30 day supply of {4 (Risedronate 35 MG Oral Tablet [Actonel]) } Pack [Actonel 35]
    </div>
  </text>

  <status value="completed"/>

  <patient>
    <reference value="Patient/1157764"/>
  </patient>

  <authorizingPrescription>
    <reference value="MedicationOrder/129"/>
  </authorizingPrescription>

  <quantity>
      <value value="4"/>
      <unit value="tablets"/>
      <system value="http://unitsofmeasure.org"/>
      <code value="{tablets}"/>
  </quantity>

  <daysSupply>
      <value value="30" />
      <unit value="days" />
      <system value="http://unitsofmeasure.org" />
      <code value="d" />
  </daysSupply>

  <medicationCodeableConcept>
    <coding>
        <system value="http://www.nlm.nih.gov/research/umls/rxnorm"/>
        <code value="877300"/>
        <display value="{4 (Risedronate 35 MG Oral Tablet [Actonel]) } Pack [Actonel 35]"/>
    </coding>
    <text value="{4 (Risedronate 35 MG Oral Tablet [Actonel]) } Pack [Actonel 35]"/>
  </medicationCodeableConcept>

  <whenHandedOver value="2006-01-20"/>

</MedicationDispense>

  </resource>
  <request>
    <method value="POST"/>
    <url value="MedicationDispense/909"/>
  </request>
</entry>
<entry>
  <resource>
    
    
<MedicationDispense>
  <id value="894"/>
  <!--  insert contents here  -->
   <text>
    <status value="generated"/>
    <div xmlns="http://www.w3.org/1999/xhtml">
      Dispensed 4 tablets = 30 day supply of {4 (Risedronate 35 MG Oral Tablet [Actonel]) } Pack [Actonel 35]
    </div>
  </text>

  <status value="completed"/>

  <patient>
    <reference value="Patient/1157764"/>
  </patient>

  <authorizingPrescription>
    <reference value="MedicationOrder/129"/>
  </authorizingPrescription>

  <quantity>
      <value value="4"/>
      <unit value="tablets"/>
      <system value="http://unitsofmeasure.org"/>
      <code value="{tablets}"/>
  </quantity>

  <daysSupply>
      <value value="30" />
      <unit value="days" />
      <system value="http://unitsofmeasure.org" />
      <code value="d" />
  </daysSupply>

  <medicationCodeableConcept>
    <coding>
        <system value="http://www.nlm.nih.gov/research/umls/rxnorm"/>
        <code value="877300"/>
        <display value="{4 (Risedronate 35 MG Oral Tablet [Actonel]) } Pack [Actonel 35]"/>
    </coding>
    <text value="{4 (Risedronate 35 MG Oral Tablet [Actonel]) } Pack [Actonel 35]"/>
  </medicationCodeableConcept>

  <whenHandedOver value="2004-10-27"/>

</MedicationDispense>

  </resource>
  <request>
    <method value="POST"/>
    <url value="MedicationDispense/894"/>
  </request>
</entry>
<entry>
  <resource>
    
    
<MedicationDispense>
  <id value="881"/>
  <!--  insert contents here  -->
   <text>
    <status value="generated"/>
    <div xmlns="http://www.w3.org/1999/xhtml">
      Dispensed 4 tablets = 30 day supply of {4 (Risedronate 35 MG Oral Tablet [Actonel]) } Pack [Actonel 35]
    </div>
  </text>

  <status value="completed"/>

  <patient>
    <reference value="Patient/1157764"/>
  </patient>

  <authorizingPrescription>
    <reference value="MedicationOrder/129"/>
  </authorizingPrescription>

  <quantity>
      <value value="4"/>
      <unit value="tablets"/>
      <system value="http://unitsofmeasure.org"/>
      <code value="{tablets}"/>
  </quantity>

  <daysSupply>
      <value value="30" />
      <unit value="days" />
      <system value="http://unitsofmeasure.org" />
      <code value="d" />
  </daysSupply>

  <medicationCodeableConcept>
    <coding>
        <system value="http://www.nlm.nih.gov/research/umls/rxnorm"/>
        <code value="877300"/>
        <display value="{4 (Risedronate 35 MG Oral Tablet [Actonel]) } Pack [Actonel 35]"/>
    </coding>
    <text value="{4 (Risedronate 35 MG Oral Tablet [Actonel]) } Pack [Actonel 35]"/>
  </medicationCodeableConcept>

  <whenHandedOver value="2003-11-02"/>

</MedicationDispense>

  </resource>
  <request>
    <method value="POST"/>
    <url value="MedicationDispense/881"/>
  </request>
</entry>
<entry>
  <resource>
    
    
<MedicationDispense>
  <id value="900"/>
  <!--  insert contents here  -->
   <text>
    <status value="generated"/>
    <div xmlns="http://www.w3.org/1999/xhtml">
      Dispensed 4 tablets = 30 day supply of {4 (Risedronate 35 MG Oral Tablet [Actonel]) } Pack [Actonel 35]
    </div>
  </text>

  <status value="completed"/>

  <patient>
    <reference value="Patient/1157764"/>
  </patient>

  <authorizingPrescription>
    <reference value="MedicationOrder/129"/>
  </authorizingPrescription>

  <quantity>
      <value value="4"/>
      <unit value="tablets"/>
      <system value="http://unitsofmeasure.org"/>
      <code value="{tablets}"/>
  </quantity>

  <daysSupply>
      <value value="30" />
      <unit value="days" />
      <system value="http://unitsofmeasure.org" />
      <code value="d" />
  </daysSupply>

  <medicationCodeableConcept>
    <coding>
        <system value="http://www.nlm.nih.gov/research/umls/rxnorm"/>
        <code value="877300"/>
        <display value="{4 (Risedronate 35 MG Oral Tablet [Actonel]) } Pack [Actonel 35]"/>
    </coding>
    <text value="{4 (Risedronate 35 MG Oral Tablet [Actonel]) } Pack [Actonel 35]"/>
  </medicationCodeableConcept>

  <whenHandedOver value="2005-04-16"/>

</MedicationDispense>

  </resource>
  <request>
    <method value="POST"/>
    <url value="MedicationDispense/900"/>
  </request>
</entry>
<entry>
  <resource>
    
    
<MedicationOrder>
  <id value="130"/>
  <text>
    <status value="generated"/>
    <div xmlns="http://www.w3.org/1999/xhtml">
      Nitrofurantoin 100 MG Oral Capsule (rxnorm: 311992)
    </div>
  </text>

  <status value="active" />
  <patient>
    <reference value="Patient/1157764"/>
  </patient>

  <medicationCodeableConcept>
    <coding>
        <system value="http://www.nlm.nih.gov/research/umls/rxnorm"/>
        <code value="311992"/>
        <display value="Nitrofurantoin 100 MG Oral Capsule"/>
    </coding>
    <text value="Nitrofurantoin 100 MG Oral Capsule"/>
  </medicationCodeableConcept>

  <dosageInstruction>
    <timing>
      <repeat>
        <boundsPeriod>
          <start value="2006-10-31"/>
        </boundsPeriod>
        <frequency value="2"/>
        <period value="1"/>
        <periodUnits value="d"/>
      </repeat>
      
    </timing>
    <doseQuantity>
      <value value="1"/>
      <unit value="{tablet}"/>
      <system value="http://unitsofmeasure.org"/>
      <code value="{tablet}"/>
    </doseQuantity>
    
    <text value="1 bid"/>
  </dosageInstruction>
  <dispenseRequest>
     <numberOfRepeatsAllowed value="1"/>
     
     <quantity>
        <value value="60"/>
        <unit value="{tablet}"/>
        <system value="http://unitsofmeasure.org"/>
        <code value="{tablet}"/>
     </quantity>
     
     <expectedSupplyDuration>
        <value value="30"/>
        <unit value="days"/>
        <system value="http://unitsofmeasure.org"/>
        <code value="d"/>
     </expectedSupplyDuration>
     
  </dispenseRequest>
  
</MedicationOrder>

  </resource>
  <request>
    <method value="POST"/>
    <url value="MedicationOrder/130"/>
  </request>
</entry>
<entry>
  <resource>
    
    
<MedicationDispense>
  <id value="880"/>
  <!--  insert contents here  -->
   <text>
    <status value="generated"/>
    <div xmlns="http://www.w3.org/1999/xhtml">
      Dispensed 60 tablets = 30 day supply of Nitrofurantoin 100 MG Oral Capsule
    </div>
  </text>

  <status value="completed"/>

  <patient>
    <reference value="Patient/1157764"/>
  </patient>

  <authorizingPrescription>
    <reference value="MedicationOrder/130"/>
  </authorizingPrescription>

  <quantity>
      <value value="60"/>
      <unit value="tablets"/>
      <system value="http://unitsofmeasure.org"/>
      <code value="{tablets}"/>
  </quantity>

  <daysSupply>
      <value value="30" />
      <unit value="days" />
      <system value="http://unitsofmeasure.org" />
      <code value="d" />
  </daysSupply>

  <medicationCodeableConcept>
    <coding>
        <system value="http://www.nlm.nih.gov/research/umls/rxnorm"/>
        <code value="311992"/>
        <display value="Nitrofurantoin 100 MG Oral Capsule"/>
    </coding>
    <text value="Nitrofurantoin 100 MG Oral Capsule"/>
  </medicationCodeableConcept>

  <whenHandedOver value="2006-10-31"/>

</MedicationDispense>

  </resource>
  <request>
    <method value="POST"/>
    <url value="MedicationDispense/880"/>
  </request>
</entry>
<entry>
  <resource>
    
    
<MedicationOrder>
  <id value="131"/>
  <text>
    <status value="generated"/>
    <div xmlns="http://www.w3.org/1999/xhtml">
      bimatoprost 0.3 MG/ML Ophthalmic Solution [Lumigan] (rxnorm: 285128)
    </div>
  </text>

  <status value="active" />
  <patient>
    <reference value="Patient/1157764"/>
  </patient>

  <medicationCodeableConcept>
    <coding>
        <system value="http://www.nlm.nih.gov/research/umls/rxnorm"/>
        <code value="285128"/>
        <display value="bimatoprost 0.3 MG/ML Ophthalmic Solution [Lumigan]"/>
    </coding>
    <text value="bimatoprost 0.3 MG/ML Ophthalmic Solution [Lumigan]"/>
  </medicationCodeableConcept>

  <dosageInstruction>
    <timing>
      <repeat>
        <boundsPeriod>
          <start value="2009-08-22"/>
        </boundsPeriod>
        <frequency value="1"/>
        <period value="1"/>
        <periodUnits value="d"/>
      </repeat>
      
    </timing>
    <doseQuantity>
      <value value="1"/>
      <unit value="[drp]"/>
      <system value="http://unitsofmeasure.org"/>
      <code value="[drp]"/>
    </doseQuantity>
    
    <text value="1 gtt daily in OD"/>
  </dosageInstruction>
  <dispenseRequest>
     <numberOfRepeatsAllowed value="1"/>
     
     <quantity>
        <value value="2"/>
        <unit value="[drp]"/>
        <system value="http://unitsofmeasure.org"/>
        <code value="[drp]"/>
     </quantity>
     
     <expectedSupplyDuration>
        <value value="20"/>
        <unit value="days"/>
        <system value="http://unitsofmeasure.org"/>
        <code value="d"/>
     </expectedSupplyDuration>
     
  </dispenseRequest>
  
</MedicationOrder>

  </resource>
  <request>
    <method value="POST"/>
    <url value="MedicationOrder/131"/>
  </request>
</entry>
<entry>
  <resource>
    
    
<MedicationDispense>
  <id value="937"/>
  <!--  insert contents here  -->
   <text>
    <status value="generated"/>
    <div xmlns="http://www.w3.org/1999/xhtml">
      Dispensed 2 tablets = 20 day supply of bimatoprost 0.3 MG/ML Ophthalmic Solution [Lumigan]
    </div>
  </text>

  <status value="completed"/>

  <patient>
    <reference value="Patient/1157764"/>
  </patient>

  <authorizingPrescription>
    <reference value="MedicationOrder/131"/>
  </authorizingPrescription>

  <quantity>
      <value value="2"/>
      <unit value="tablets"/>
      <system value="http://unitsofmeasure.org"/>
      <code value="{tablets}"/>
  </quantity>

  <daysSupply>
      <value value="20" />
      <unit value="days" />
      <system value="http://unitsofmeasure.org" />
      <code value="d" />
  </daysSupply>

  <medicationCodeableConcept>
    <coding>
        <system value="http://www.nlm.nih.gov/research/umls/rxnorm"/>
        <code value="285128"/>
        <display value="bimatoprost 0.3 MG/ML Ophthalmic Solution [Lumigan]"/>
    </coding>
    <text value="bimatoprost 0.3 MG/ML Ophthalmic Solution [Lumigan]"/>
  </medicationCodeableConcept>

  <whenHandedOver value="2009-08-22"/>

</MedicationDispense>

  </resource>
  <request>
    <method value="POST"/>
    <url value="MedicationDispense/937"/>
  </request>
</entry>
  <entry>
  <resource>
    
    
  <Condition>
  <id value="379"/>
    <text>
     <status value="generated"/>
     <div xmlns="http://www.w3.org/1999/xhtml">Primary malignant neoplasm of female breast</div>   
   </text>
    <patient>
      <reference value="Patient/1157764"/>
    </patient>
    <code> 
      <coding>
        <system value="http://snomed.info/sct"/>
        <code value="254837009"/>
        <display value="Primary malignant neoplasm of female breast"/>
      </coding>
      <text value="Primary malignant neoplasm of female breast"/>
    </code>
   <clinicalStatus value="confirmed"/>
   <onsetDateTime value="2003-12-16"/>
   
  </Condition>
  
  </resource>
  <request>
    <method value="POST"/>
    <url value="Condition/379"/>
  </request>
</entry>
  <entry>
  <resource>
    
    
  <Condition>
  <id value="380"/>
    <text>
     <status value="generated"/>
     <div xmlns="http://www.w3.org/1999/xhtml">Adjustment disorder</div>   
   </text>
    <patient>
      <reference value="Patient/1157764"/>
    </patient>
    <code> 
      <coding>
        <system value="http://snomed.info/sct"/>
        <code value="17226007"/>
        <display value="Adjustment disorder"/>
      </coding>
      <text value="Adjustment disorder"/>
    </code>
   <clinicalStatus value="confirmed"/>
   <onsetDateTime value="2005-09-14"/>
   
  </Condition>
  
  </resource>
  <request>
    <method value="POST"/>
    <url value="Condition/380"/>
  </request>
</entry>
  <entry>
  <resource>
    
    
  <Condition>
  <id value="381"/>
    <text>
     <status value="generated"/>
     <div xmlns="http://www.w3.org/1999/xhtml">Crohn&#39;s disease of large bowel</div>   
   </text>
    <patient>
      <reference value="Patient/1157764"/>
    </patient>
    <code> 
      <coding>
        <system value="http://snomed.info/sct"/>
        <code value="7620006"/>
        <display value="Crohn&#39;s disease of large bowel"/>
      </coding>
      <text value="Crohn&#39;s disease of large bowel"/>
    </code>
   <clinicalStatus value="confirmed"/>
   <onsetDateTime value="2005-11-14"/>
   
  </Condition>
  
  </resource>
  <request>
    <method value="POST"/>
    <url value="Condition/381"/>
  </request>
</entry>
  <entry>
  <resource>
    
    
  <Condition>
  <id value="382"/>
    <text>
     <status value="generated"/>
     <div xmlns="http://www.w3.org/1999/xhtml">Recurrent major depressive episodes, moderate</div>   
   </text>
    <patient>
      <reference value="Patient/1157764"/>
    </patient>
    <code> 
      <coding>
        <system value="http://snomed.info/sct"/>
        <code value="18818009"/>
        <display value="Recurrent major depressive episodes, moderate"/>
      </coding>
      <text value="Recurrent major depressive episodes, moderate"/>
    </code>
   <clinicalStatus value="confirmed"/>
   <onsetDateTime value="2005-11-15"/>
   
  </Condition>
  
  </resource>
  <request>
    <method value="POST"/>
    <url value="Condition/382"/>
  </request>
</entry>
  <entry>
  <resource>
    
    
  <Condition>
  <id value="383"/>
    <text>
     <status value="generated"/>
     <div xmlns="http://www.w3.org/1999/xhtml">Acute sinusitis</div>   
   </text>
    <patient>
      <reference value="Patient/1157764"/>
    </patient>
    <code> 
      <coding>
        <system value="http://snomed.info/sct"/>
        <code value="36971009"/>
        <display value="Acute sinusitis"/>
      </coding>
      <text value="Acute sinusitis"/>
    </code>
   <clinicalStatus value="confirmed"/>
   <onsetDateTime value="2006-09-26"/>
   
  </Condition>
  
  </resource>
  <request>
    <method value="POST"/>
    <url value="Condition/383"/>
  </request>
</entry>
  <entry>
  <resource>
    
    
  <Condition>
  <id value="384"/>
    <text>
     <status value="generated"/>
     <div xmlns="http://www.w3.org/1999/xhtml">Hematuria syndrome</div>   
   </text>
    <patient>
      <reference value="Patient/1157764"/>
    </patient>
    <code> 
      <coding>
        <system value="http://snomed.info/sct"/>
        <code value="53298000"/>
        <display value="Hematuria syndrome"/>
      </coding>
      <text value="Hematuria syndrome"/>
    </code>
   <clinicalStatus value="confirmed"/>
   <onsetDateTime value="2006-10-30"/>
   
  </Condition>
  
  </resource>
  <request>
    <method value="POST"/>
    <url value="Condition/384"/>
  </request>
</entry>
  <entry>
  <resource>
    
    
  <Condition>
  <id value="385"/>
    <text>
     <status value="generated"/>
     <div xmlns="http://www.w3.org/1999/xhtml">Primary malignant neoplasm of central portion of female breast</div>   
   </text>
    <patient>
      <reference value="Patient/1157764"/>
    </patient>
    <code> 
      <coding>
        <system value="http://snomed.info/sct"/>
        <code value="372064008"/>
        <display value="Primary malignant neoplasm of central portion of female breast"/>
      </coding>
      <text value="Primary malignant neoplasm of central portion of female breast"/>
    </code>
   <clinicalStatus value="confirmed"/>
   <onsetDateTime value="2008-10-21"/>
   
  </Condition>
  
  </resource>
  <request>
    <method value="POST"/>
    <url value="Condition/385"/>
  </request>
</entry>
  <entry>
  <resource>
    
    
  <Condition>
  <id value="386"/>
    <text>
     <status value="generated"/>
     <div xmlns="http://www.w3.org/1999/xhtml">Primary open angle glaucoma</div>   
   </text>
    <patient>
      <reference value="Patient/1157764"/>
    </patient>
    <code> 
      <coding>
        <system value="http://snomed.info/sct"/>
        <code value="77075001"/>
        <display value="Primary open angle glaucoma"/>
      </coding>
      <text value="Primary open angle glaucoma"/>
    </code>
   <clinicalStatus value="confirmed"/>
   <onsetDateTime value="2009-05-20"/>
   
  </Condition>
  
  </resource>
  <request>
    <method value="POST"/>
    <url value="Condition/386"/>
  </request>
</entry>
  <entry>
  <resource>
    
    
  <Condition>
  <id value="387"/>
    <text>
     <status value="generated"/>
     <div xmlns="http://www.w3.org/1999/xhtml">Low tension glaucoma</div>   
   </text>
    <patient>
      <reference value="Patient/1157764"/>
    </patient>
    <code> 
      <coding>
        <system value="http://snomed.info/sct"/>
        <code value="50485007"/>
        <display value="Low tension glaucoma"/>
      </coding>
      <text value="Low tension glaucoma"/>
    </code>
   <clinicalStatus value="confirmed"/>
   <onsetDateTime value="2009-07-01"/>
   
  </Condition>
  
  </resource>
  <request>
    <method value="POST"/>
    <url value="Condition/387"/>
  </request>
</entry>
<entry>
  <resource>
    
    
  <Observation>
  <id value="46-smokingstatus"/>
    <text>
      <status value="generated"/>
      <div xmlns="http://www.w3.org/1999/xhtml">Tobacco smoking status: Current every day smoker</div>
    </text>
    <code>
      <coding>
        <system value="http://loinc.org"/>
        <code value="72166-2"/>
        <display value="Tobacco smoking status"/>
      </coding>
      <text value="Tobacco smoking status"/>
    </code>
    <valueCodeableConcept>
      <coding>
        <system value="http://snomed.info/sct"/>
        <code value="449868002"/>
        <display value="Current every day smoker"/>
      </coding>
      <text value="Current every day smoker"/>
    </valueCodeableConcept>
    <status value="final"/>
    <subject>
      <reference value="Patient/1157764"/>
    </subject>
  </Observation>
  
  </resource>
  <request>
    <method value="POST"/>
    <url value="Observation/46-smokingstatus"/>
  </request>
</entry>
<entry>
  <resource>
    
    
  <Observation>
  <id value="1157764-gestage"/>
    <text>
      <status value="generated"/>
      <div xmlns="http://www.w3.org/1999/xhtml">1949-11-04: Gestational age at birth = 38.3 weeks</div>
    </text>
    <code>
      <coding>
        <system value="http://loinc.org"/>
        <code value="18185-9"/>
        <display value="Gestational age at birth"/>
      </coding>
      <text value="Gestational age at birth"/>
    </code>
    <valueQuantity>
      <value value="38.3"/>
      <unit value="weeks"/>
      <system value="http://unitsofmeasure.org" />
      <code value="wk"/>
    </valueQuantity>
    
    <effectiveDateTime value="1949-11-04"/>
    <status value="final"/>
    <subject>
      <reference value="Patient/1157764"/>
    </subject>
  </Observation>
  
  </resource>
  <request>
    <method value="POST"/>
    <url value="Observation/1157764-gestage"/>
  </request>
</entry>
  <entry>
  <resource>
    
    
    <List>
  <id value="24"/>
        <text>
            <status value="generated"/>
            <div xmlns="http://www.w3.org/1999/xhtml">No known allergies</div>
        </text>
        <code>
            <coding>
               <system value="http://loinc.org/"/>
               <code value="52473-6"/>
               <display value="Allergy"/>
            </coding>
            <text value="Allergy"/>
        </code>
        <subject>
          <reference value="Patient/1157764"/>
        </subject>
        <date value="2000"/>
        <mode value="snapshot"/>
        <emptyReason>
            <coding>
                <system value="http://hl7.org/fhir/list-empty-reason"/>
                <code value="nilknown"/>
                <display value="Nil Known"/>
            </coding>
            <text value="Nil Known"/>
        </emptyReason>
    </List>
  
  </resource>
  <request>
    <method value="POST"/>
    <url value="List/24"/>
  </request>
</entry>

</Bundle>
