<?xml version="1.0" encoding="UTF-8"?>
<Bundle xmlns="http://hl7.org/fhir">
    <type value="transaction"/>

  <entry>
  <resource>
    
    
  <Patient>
    <id value="1186747"/>
    <text>
      <status value="generated"/>
      <div xmlns="http://www.w3.org/1999/xhtml">
        <p>Daniel Johnson</p>
      </div>
    </text>
    <identifier>
      <use value="usual"/>
      <type>
        <coding>
          <system value="http://hl7.org/fhir/v2/0203"/>
          <code value="MR"/>
          <display value="Medical record number"/>
        </coding>
        <text value="Medical record number"/>
      </type>
      <system value="http://hospital.smarthealthit.org"/>
      <value value="1186747"/>
    </identifier>
    <name>
      <use value="official"/>
      <family value="Johnson"/>
      <given value="Daniel"/>
      <given value="A."/>
    </name>
    <telecom>
      <system value="phone"/>
      <value value="800-504-6466"/>
      <use value="mobile"/>
    </telecom>
    <telecom>
      <system value="email"/>
      <value value="daniel.johnson@example.com"/>
    </telecom>
    <gender value="male" />
    <birthDate value="1995-02-22" />
    <address>
      <use value="home"/>
      <line value="2 Main Ave"/>
      <city value="Broken Arrow"/>
      <state value="OK"/>
      <postalCode value="74014"/>
      <country value="USA"/>
    </address>
    <active value="true"/>
  </Patient>
  
  </resource>
  <request>
    <method value="POST"/>
    <url value="Patient/1186747"/>
  </request>
</entry>
  <entry>
  <resource>
    
    
    <Encounter>
  <id value="691"/>
      <text>
        <status value="generated"/>
        <div xmlns="http://www.w3.org/1999/xhtml">1999-07-02: ambulatory encounter</div>
      </text>
      <status value="finished"/>
      <class value="ambulatory"/>
      <patient>
        <reference value="Patient/1186747"/>
      </patient>
      <period>
       <start value="1999-07-02"/>
       <end value="1999-07-02"/>
      </period>
    </Encounter>
  
  </resource>
  <request>
    <method value="POST"/>
    <url value="Encounter/691"/>
  </request>
</entry>
  <entry>
  <resource>
    
    
    <Encounter>
  <id value="692"/>
      <text>
        <status value="generated"/>
        <div xmlns="http://www.w3.org/1999/xhtml">2004-08-03: ambulatory encounter</div>
      </text>
      <status value="finished"/>
      <class value="ambulatory"/>
      <patient>
        <reference value="Patient/1186747"/>
      </patient>
      <period>
       <start value="2004-08-03"/>
       <end value="2004-08-03"/>
      </period>
    </Encounter>
  
  </resource>
  <request>
    <method value="POST"/>
    <url value="Encounter/692"/>
  </request>
</entry>
  <entry>
  <resource>
    
    
    <Encounter>
  <id value="693"/>
      <text>
        <status value="generated"/>
        <div xmlns="http://www.w3.org/1999/xhtml">2004-08-05: ambulatory encounter</div>
      </text>
      <status value="finished"/>
      <class value="ambulatory"/>
      <patient>
        <reference value="Patient/1186747"/>
      </patient>
      <period>
       <start value="2004-08-05"/>
       <end value="2004-08-05"/>
      </period>
    </Encounter>
  
  </resource>
  <request>
    <method value="POST"/>
    <url value="Encounter/693"/>
  </request>
</entry>
  <entry>
  <resource>
    
    
    <Encounter>
  <id value="694"/>
      <text>
        <status value="generated"/>
        <div xmlns="http://www.w3.org/1999/xhtml">2004-12-03: ambulatory encounter</div>
      </text>
      <status value="finished"/>
      <class value="ambulatory"/>
      <patient>
        <reference value="Patient/1186747"/>
      </patient>
      <period>
       <start value="2004-12-03"/>
       <end value="2004-12-03"/>
      </period>
    </Encounter>
  
  </resource>
  <request>
    <method value="POST"/>
    <url value="Encounter/694"/>
  </request>
</entry>
  <entry>
  <resource>
    
    
    <Encounter>
  <id value="695"/>
      <text>
        <status value="generated"/>
        <div xmlns="http://www.w3.org/1999/xhtml">2005-08-18: ambulatory encounter</div>
      </text>
      <status value="finished"/>
      <class value="ambulatory"/>
      <patient>
        <reference value="Patient/1186747"/>
      </patient>
      <period>
       <start value="2005-08-18"/>
       <end value="2005-08-18"/>
      </period>
    </Encounter>
  
  </resource>
  <request>
    <method value="POST"/>
    <url value="Encounter/695"/>
  </request>
</entry>
  <entry>
  <resource>
    
    
    <Encounter>
  <id value="696"/>
      <text>
        <status value="generated"/>
        <div xmlns="http://www.w3.org/1999/xhtml">2007-03-25: ambulatory encounter</div>
      </text>
      <status value="finished"/>
      <class value="ambulatory"/>
      <patient>
        <reference value="Patient/1186747"/>
      </patient>
      <period>
       <start value="2007-03-25"/>
       <end value="2007-03-25"/>
      </period>
    </Encounter>
  
  </resource>
  <request>
    <method value="POST"/>
    <url value="Encounter/696"/>
  </request>
</entry>
  <entry>
  <resource>
    
    
    <Encounter>
  <id value="697"/>
      <text>
        <status value="generated"/>
        <div xmlns="http://www.w3.org/1999/xhtml">2007-08-14: ambulatory encounter</div>
      </text>
      <status value="finished"/>
      <class value="ambulatory"/>
      <patient>
        <reference value="Patient/1186747"/>
      </patient>
      <period>
       <start value="2007-08-14"/>
       <end value="2007-08-14"/>
      </period>
    </Encounter>
  
  </resource>
  <request>
    <method value="POST"/>
    <url value="Encounter/697"/>
  </request>
</entry>
  <entry>
  <resource>
    
    
    <Encounter>
  <id value="698"/>
      <text>
        <status value="generated"/>
        <div xmlns="http://www.w3.org/1999/xhtml">2007-08-15: ambulatory encounter</div>
      </text>
      <status value="finished"/>
      <class value="ambulatory"/>
      <patient>
        <reference value="Patient/1186747"/>
      </patient>
      <period>
       <start value="2007-08-15"/>
       <end value="2007-08-15"/>
      </period>
    </Encounter>
  
  </resource>
  <request>
    <method value="POST"/>
    <url value="Encounter/698"/>
  </request>
</entry>
  <entry>
  <resource>
    
    
    <Encounter>
  <id value="699"/>
      <text>
        <status value="generated"/>
        <div xmlns="http://www.w3.org/1999/xhtml">2007-09-13: ambulatory encounter</div>
      </text>
      <status value="finished"/>
      <class value="ambulatory"/>
      <patient>
        <reference value="Patient/1186747"/>
      </patient>
      <period>
       <start value="2007-09-13"/>
       <end value="2007-09-13"/>
      </period>
    </Encounter>
  
  </resource>
  <request>
    <method value="POST"/>
    <url value="Encounter/699"/>
  </request>
</entry>
  <entry>
  <resource>
    
    
    <Encounter>
  <id value="700"/>
      <text>
        <status value="generated"/>
        <div xmlns="http://www.w3.org/1999/xhtml">2007-09-14: ambulatory encounter</div>
      </text>
      <status value="finished"/>
      <class value="ambulatory"/>
      <patient>
        <reference value="Patient/1186747"/>
      </patient>
      <period>
       <start value="2007-09-14"/>
       <end value="2007-09-14"/>
      </period>
    </Encounter>
  
  </resource>
  <request>
    <method value="POST"/>
    <url value="Encounter/700"/>
  </request>
</entry>
  <entry>
  <resource>
    
    
    <Encounter>
  <id value="701"/>
      <text>
        <status value="generated"/>
        <div xmlns="http://www.w3.org/1999/xhtml">2007-09-24: ambulatory encounter</div>
      </text>
      <status value="finished"/>
      <class value="ambulatory"/>
      <patient>
        <reference value="Patient/1186747"/>
      </patient>
      <period>
       <start value="2007-09-24"/>
       <end value="2007-09-24"/>
      </period>
    </Encounter>
  
  </resource>
  <request>
    <method value="POST"/>
    <url value="Encounter/701"/>
  </request>
</entry>
  <entry>
  <resource>
    
    
    <Encounter>
  <id value="702"/>
      <text>
        <status value="generated"/>
        <div xmlns="http://www.w3.org/1999/xhtml">2007-09-27: ambulatory encounter</div>
      </text>
      <status value="finished"/>
      <class value="ambulatory"/>
      <patient>
        <reference value="Patient/1186747"/>
      </patient>
      <period>
       <start value="2007-09-27"/>
       <end value="2007-09-27"/>
      </period>
    </Encounter>
  
  </resource>
  <request>
    <method value="POST"/>
    <url value="Encounter/702"/>
  </request>
</entry>
  <entry>
  <resource>
    
    
    <Encounter>
  <id value="703"/>
      <text>
        <status value="generated"/>
        <div xmlns="http://www.w3.org/1999/xhtml">2008-12-30: ambulatory encounter</div>
      </text>
      <status value="finished"/>
      <class value="ambulatory"/>
      <patient>
        <reference value="Patient/1186747"/>
      </patient>
      <period>
       <start value="2008-12-30"/>
       <end value="2008-12-30"/>
      </period>
    </Encounter>
  
  </resource>
  <request>
    <method value="POST"/>
    <url value="Encounter/703"/>
  </request>
</entry>
  <entry>
  <resource>
    
    
    <Encounter>
  <id value="704"/>
      <text>
        <status value="generated"/>
        <div xmlns="http://www.w3.org/1999/xhtml">2009-01-05: ambulatory encounter</div>
      </text>
      <status value="finished"/>
      <class value="ambulatory"/>
      <patient>
        <reference value="Patient/1186747"/>
      </patient>
      <period>
       <start value="2009-01-05"/>
       <end value="2009-01-05"/>
      </period>
    </Encounter>
  
  </resource>
  <request>
    <method value="POST"/>
    <url value="Encounter/704"/>
  </request>
</entry>
  <entry>
  <resource>
    
    
  <Observation>
    <id value="691-bp"/>
    <text>
      <status value="generated"/>
      <div xmlns="http://www.w3.org/1999/xhtml">1999-07-02: Blood pressure 109/44 mmHg</div>
    </text>
    <code>
      <coding>
        <system value="http://loinc.org"/>
        <code value="55284-4"/>
        <display value="Blood pressure systolic and diastolic"/>
      </coding>
      <text value="Blood pressure systolic and diastolic"/>
    </code>
    <effectiveDateTime value="1999-07-02"/>
    <status value="final"/>
    <subject>
      <reference value="Patient/1186747"/>
    </subject>
    <encounter>
      <reference value="Encounter/691"/>
    </encounter>
    

    <component>
        <code>
            <coding>
                <system value="http://loinc.org"/>
                <code value="8480-6"/>
                <display value="Systolic blood pressure"/>
            </coding>
            <text value="Systolic blood pressure"/>
        </code>
        <valueQuantity>
            <value value="109"/>
            <unit value="mmHg"/>
            <system value="http://unitsofmeasure.org" />
            <code value="mm[Hg]"/>
        </valueQuantity>
    </component>

    <component>
        <code>
            <coding>
                <system value="http://loinc.org"/>
                <code value="8462-4"/>
                <display value="Diastolic blood pressure"/>
            </coding>
            <text value="Diastolic blood pressure"/>
        </code>
        <valueQuantity>
            <value value="44"/>
            <unit value="mmHg"/>
            <system value="http://unitsofmeasure.org" />
            <code value="mm[Hg]"/>
        </valueQuantity>
    </component>

  </Observation>
  
  </resource>
  <request>
    <method value="POST"/>
    <url value="Observation/691-bp"/>
  </request>
</entry>
<entry>
  <resource>
    
    
  <Observation>
  <id value="691-systolic"/>
    <text>
      <status value="generated"/>
      <div xmlns="http://www.w3.org/1999/xhtml">1999-07-02: Systolic blood pressure = 109 mm[Hg]</div>
    </text>
    <code>
      <coding>
        <system value="http://loinc.org"/>
        <code value="8480-6"/>
        <display value="Systolic blood pressure"/>
      </coding>
      <text value="Systolic blood pressure"/>
    </code>
    <valueQuantity>
      <value value="109.0"/>
      <unit value="mm[Hg]"/>
      <system value="http://unitsofmeasure.org" />
      <code value="mm[Hg]"/>
    </valueQuantity>
    
    <effectiveDateTime value="1999-07-02"/>
    <status value="final"/>
    <subject>
      <reference value="Patient/1186747"/>
    </subject>
  </Observation>
  
  </resource>
  <request>
    <method value="POST"/>
    <url value="Observation/691-systolic"/>
  </request>
</entry>
<entry>
  <resource>
    
    
  <Observation>
  <id value="691-diastolic"/>
    <text>
      <status value="generated"/>
      <div xmlns="http://www.w3.org/1999/xhtml">1999-07-02: Diastolic blood pressure = 44 mm[Hg]</div>
    </text>
    <code>
      <coding>
        <system value="http://loinc.org"/>
        <code value="8462-4"/>
        <display value="Diastolic blood pressure"/>
      </coding>
      <text value="Diastolic blood pressure"/>
    </code>
    <valueQuantity>
      <value value="44.0"/>
      <unit value="mm[Hg]"/>
      <system value="http://unitsofmeasure.org" />
      <code value="mm[Hg]"/>
    </valueQuantity>
    
    <effectiveDateTime value="1999-07-02"/>
    <status value="final"/>
    <subject>
      <reference value="Patient/1186747"/>
    </subject>
  </Observation>
  
  </resource>
  <request>
    <method value="POST"/>
    <url value="Observation/691-diastolic"/>
  </request>
</entry>
  <entry>
  <resource>
    
    
  <Observation>
    <id value="692-bp"/>
    <text>
      <status value="generated"/>
      <div xmlns="http://www.w3.org/1999/xhtml">2004-08-03: Blood pressure 124/79 mmHg</div>
    </text>
    <code>
      <coding>
        <system value="http://loinc.org"/>
        <code value="55284-4"/>
        <display value="Blood pressure systolic and diastolic"/>
      </coding>
      <text value="Blood pressure systolic and diastolic"/>
    </code>
    <effectiveDateTime value="2004-08-03"/>
    <status value="final"/>
    <subject>
      <reference value="Patient/1186747"/>
    </subject>
    <encounter>
      <reference value="Encounter/692"/>
    </encounter>
    

    <component>
        <code>
            <coding>
                <system value="http://loinc.org"/>
                <code value="8480-6"/>
                <display value="Systolic blood pressure"/>
            </coding>
            <text value="Systolic blood pressure"/>
        </code>
        <valueQuantity>
            <value value="124"/>
            <unit value="mmHg"/>
            <system value="http://unitsofmeasure.org" />
            <code value="mm[Hg]"/>
        </valueQuantity>
    </component>

    <component>
        <code>
            <coding>
                <system value="http://loinc.org"/>
                <code value="8462-4"/>
                <display value="Diastolic blood pressure"/>
            </coding>
            <text value="Diastolic blood pressure"/>
        </code>
        <valueQuantity>
            <value value="79"/>
            <unit value="mmHg"/>
            <system value="http://unitsofmeasure.org" />
            <code value="mm[Hg]"/>
        </valueQuantity>
    </component>

  </Observation>
  
  </resource>
  <request>
    <method value="POST"/>
    <url value="Observation/692-bp"/>
  </request>
</entry>
<entry>
  <resource>
    
    
  <Observation>
  <id value="692-systolic"/>
    <text>
      <status value="generated"/>
      <div xmlns="http://www.w3.org/1999/xhtml">2004-08-03: Systolic blood pressure = 124 mm[Hg]</div>
    </text>
    <code>
      <coding>
        <system value="http://loinc.org"/>
        <code value="8480-6"/>
        <display value="Systolic blood pressure"/>
      </coding>
      <text value="Systolic blood pressure"/>
    </code>
    <valueQuantity>
      <value value="124.0"/>
      <unit value="mm[Hg]"/>
      <system value="http://unitsofmeasure.org" />
      <code value="mm[Hg]"/>
    </valueQuantity>
    
    <effectiveDateTime value="2004-08-03"/>
    <status value="final"/>
    <subject>
      <reference value="Patient/1186747"/>
    </subject>
  </Observation>
  
  </resource>
  <request>
    <method value="POST"/>
    <url value="Observation/692-systolic"/>
  </request>
</entry>
<entry>
  <resource>
    
    
  <Observation>
  <id value="692-diastolic"/>
    <text>
      <status value="generated"/>
      <div xmlns="http://www.w3.org/1999/xhtml">2004-08-03: Diastolic blood pressure = 79 mm[Hg]</div>
    </text>
    <code>
      <coding>
        <system value="http://loinc.org"/>
        <code value="8462-4"/>
        <display value="Diastolic blood pressure"/>
      </coding>
      <text value="Diastolic blood pressure"/>
    </code>
    <valueQuantity>
      <value value="79.0"/>
      <unit value="mm[Hg]"/>
      <system value="http://unitsofmeasure.org" />
      <code value="mm[Hg]"/>
    </valueQuantity>
    
    <effectiveDateTime value="2004-08-03"/>
    <status value="final"/>
    <subject>
      <reference value="Patient/1186747"/>
    </subject>
  </Observation>
  
  </resource>
  <request>
    <method value="POST"/>
    <url value="Observation/692-diastolic"/>
  </request>
</entry>
  <entry>
  <resource>
    
    
  <Observation>
    <id value="693-bp"/>
    <text>
      <status value="generated"/>
      <div xmlns="http://www.w3.org/1999/xhtml">2004-08-05: Blood pressure 100/61 mmHg</div>
    </text>
    <code>
      <coding>
        <system value="http://loinc.org"/>
        <code value="55284-4"/>
        <display value="Blood pressure systolic and diastolic"/>
      </coding>
      <text value="Blood pressure systolic and diastolic"/>
    </code>
    <effectiveDateTime value="2004-08-05"/>
    <status value="final"/>
    <subject>
      <reference value="Patient/1186747"/>
    </subject>
    <encounter>
      <reference value="Encounter/693"/>
    </encounter>
    

    <component>
        <code>
            <coding>
                <system value="http://loinc.org"/>
                <code value="8480-6"/>
                <display value="Systolic blood pressure"/>
            </coding>
            <text value="Systolic blood pressure"/>
        </code>
        <valueQuantity>
            <value value="100"/>
            <unit value="mmHg"/>
            <system value="http://unitsofmeasure.org" />
            <code value="mm[Hg]"/>
        </valueQuantity>
    </component>

    <component>
        <code>
            <coding>
                <system value="http://loinc.org"/>
                <code value="8462-4"/>
                <display value="Diastolic blood pressure"/>
            </coding>
            <text value="Diastolic blood pressure"/>
        </code>
        <valueQuantity>
            <value value="61"/>
            <unit value="mmHg"/>
            <system value="http://unitsofmeasure.org" />
            <code value="mm[Hg]"/>
        </valueQuantity>
    </component>

  </Observation>
  
  </resource>
  <request>
    <method value="POST"/>
    <url value="Observation/693-bp"/>
  </request>
</entry>
<entry>
  <resource>
    
    
  <Observation>
  <id value="693-systolic"/>
    <text>
      <status value="generated"/>
      <div xmlns="http://www.w3.org/1999/xhtml">2004-08-05: Systolic blood pressure = 100 mm[Hg]</div>
    </text>
    <code>
      <coding>
        <system value="http://loinc.org"/>
        <code value="8480-6"/>
        <display value="Systolic blood pressure"/>
      </coding>
      <text value="Systolic blood pressure"/>
    </code>
    <valueQuantity>
      <value value="100.0"/>
      <unit value="mm[Hg]"/>
      <system value="http://unitsofmeasure.org" />
      <code value="mm[Hg]"/>
    </valueQuantity>
    
    <effectiveDateTime value="2004-08-05"/>
    <status value="final"/>
    <subject>
      <reference value="Patient/1186747"/>
    </subject>
  </Observation>
  
  </resource>
  <request>
    <method value="POST"/>
    <url value="Observation/693-systolic"/>
  </request>
</entry>
<entry>
  <resource>
    
    
  <Observation>
  <id value="693-diastolic"/>
    <text>
      <status value="generated"/>
      <div xmlns="http://www.w3.org/1999/xhtml">2004-08-05: Diastolic blood pressure = 61 mm[Hg]</div>
    </text>
    <code>
      <coding>
        <system value="http://loinc.org"/>
        <code value="8462-4"/>
        <display value="Diastolic blood pressure"/>
      </coding>
      <text value="Diastolic blood pressure"/>
    </code>
    <valueQuantity>
      <value value="61.0"/>
      <unit value="mm[Hg]"/>
      <system value="http://unitsofmeasure.org" />
      <code value="mm[Hg]"/>
    </valueQuantity>
    
    <effectiveDateTime value="2004-08-05"/>
    <status value="final"/>
    <subject>
      <reference value="Patient/1186747"/>
    </subject>
  </Observation>
  
  </resource>
  <request>
    <method value="POST"/>
    <url value="Observation/693-diastolic"/>
  </request>
</entry>
  <entry>
  <resource>
    
    
  <Observation>
    <id value="694-bp"/>
    <text>
      <status value="generated"/>
      <div xmlns="http://www.w3.org/1999/xhtml">2004-12-03: Blood pressure 137/90 mmHg</div>
    </text>
    <code>
      <coding>
        <system value="http://loinc.org"/>
        <code value="55284-4"/>
        <display value="Blood pressure systolic and diastolic"/>
      </coding>
      <text value="Blood pressure systolic and diastolic"/>
    </code>
    <effectiveDateTime value="2004-12-03"/>
    <status value="final"/>
    <subject>
      <reference value="Patient/1186747"/>
    </subject>
    <encounter>
      <reference value="Encounter/694"/>
    </encounter>
    

    <component>
        <code>
            <coding>
                <system value="http://loinc.org"/>
                <code value="8480-6"/>
                <display value="Systolic blood pressure"/>
            </coding>
            <text value="Systolic blood pressure"/>
        </code>
        <valueQuantity>
            <value value="137"/>
            <unit value="mmHg"/>
            <system value="http://unitsofmeasure.org" />
            <code value="mm[Hg]"/>
        </valueQuantity>
    </component>

    <component>
        <code>
            <coding>
                <system value="http://loinc.org"/>
                <code value="8462-4"/>
                <display value="Diastolic blood pressure"/>
            </coding>
            <text value="Diastolic blood pressure"/>
        </code>
        <valueQuantity>
            <value value="90"/>
            <unit value="mmHg"/>
            <system value="http://unitsofmeasure.org" />
            <code value="mm[Hg]"/>
        </valueQuantity>
    </component>

  </Observation>
  
  </resource>
  <request>
    <method value="POST"/>
    <url value="Observation/694-bp"/>
  </request>
</entry>
<entry>
  <resource>
    
    
  <Observation>
  <id value="694-systolic"/>
    <text>
      <status value="generated"/>
      <div xmlns="http://www.w3.org/1999/xhtml">2004-12-03: Systolic blood pressure = 137 mm[Hg]</div>
    </text>
    <code>
      <coding>
        <system value="http://loinc.org"/>
        <code value="8480-6"/>
        <display value="Systolic blood pressure"/>
      </coding>
      <text value="Systolic blood pressure"/>
    </code>
    <valueQuantity>
      <value value="137.0"/>
      <unit value="mm[Hg]"/>
      <system value="http://unitsofmeasure.org" />
      <code value="mm[Hg]"/>
    </valueQuantity>
    
    <effectiveDateTime value="2004-12-03"/>
    <status value="final"/>
    <subject>
      <reference value="Patient/1186747"/>
    </subject>
  </Observation>
  
  </resource>
  <request>
    <method value="POST"/>
    <url value="Observation/694-systolic"/>
  </request>
</entry>
<entry>
  <resource>
    
    
  <Observation>
  <id value="694-diastolic"/>
    <text>
      <status value="generated"/>
      <div xmlns="http://www.w3.org/1999/xhtml">2004-12-03: Diastolic blood pressure = 90 mm[Hg]</div>
    </text>
    <code>
      <coding>
        <system value="http://loinc.org"/>
        <code value="8462-4"/>
        <display value="Diastolic blood pressure"/>
      </coding>
      <text value="Diastolic blood pressure"/>
    </code>
    <valueQuantity>
      <value value="90.0"/>
      <unit value="mm[Hg]"/>
      <system value="http://unitsofmeasure.org" />
      <code value="mm[Hg]"/>
    </valueQuantity>
    
    <effectiveDateTime value="2004-12-03"/>
    <status value="final"/>
    <subject>
      <reference value="Patient/1186747"/>
    </subject>
  </Observation>
  
  </resource>
  <request>
    <method value="POST"/>
    <url value="Observation/694-diastolic"/>
  </request>
</entry>
  <entry>
  <resource>
    
    
  <Observation>
    <id value="695-bp"/>
    <text>
      <status value="generated"/>
      <div xmlns="http://www.w3.org/1999/xhtml">2005-08-18: Blood pressure 101/62 mmHg</div>
    </text>
    <code>
      <coding>
        <system value="http://loinc.org"/>
        <code value="55284-4"/>
        <display value="Blood pressure systolic and diastolic"/>
      </coding>
      <text value="Blood pressure systolic and diastolic"/>
    </code>
    <effectiveDateTime value="2005-08-18"/>
    <status value="final"/>
    <subject>
      <reference value="Patient/1186747"/>
    </subject>
    <encounter>
      <reference value="Encounter/695"/>
    </encounter>
    

    <component>
        <code>
            <coding>
                <system value="http://loinc.org"/>
                <code value="8480-6"/>
                <display value="Systolic blood pressure"/>
            </coding>
            <text value="Systolic blood pressure"/>
        </code>
        <valueQuantity>
            <value value="101"/>
            <unit value="mmHg"/>
            <system value="http://unitsofmeasure.org" />
            <code value="mm[Hg]"/>
        </valueQuantity>
    </component>

    <component>
        <code>
            <coding>
                <system value="http://loinc.org"/>
                <code value="8462-4"/>
                <display value="Diastolic blood pressure"/>
            </coding>
            <text value="Diastolic blood pressure"/>
        </code>
        <valueQuantity>
            <value value="62"/>
            <unit value="mmHg"/>
            <system value="http://unitsofmeasure.org" />
            <code value="mm[Hg]"/>
        </valueQuantity>
    </component>

  </Observation>
  
  </resource>
  <request>
    <method value="POST"/>
    <url value="Observation/695-bp"/>
  </request>
</entry>
<entry>
  <resource>
    
    
  <Observation>
  <id value="695-systolic"/>
    <text>
      <status value="generated"/>
      <div xmlns="http://www.w3.org/1999/xhtml">2005-08-18: Systolic blood pressure = 101 mm[Hg]</div>
    </text>
    <code>
      <coding>
        <system value="http://loinc.org"/>
        <code value="8480-6"/>
        <display value="Systolic blood pressure"/>
      </coding>
      <text value="Systolic blood pressure"/>
    </code>
    <valueQuantity>
      <value value="101.0"/>
      <unit value="mm[Hg]"/>
      <system value="http://unitsofmeasure.org" />
      <code value="mm[Hg]"/>
    </valueQuantity>
    
    <effectiveDateTime value="2005-08-18"/>
    <status value="final"/>
    <subject>
      <reference value="Patient/1186747"/>
    </subject>
  </Observation>
  
  </resource>
  <request>
    <method value="POST"/>
    <url value="Observation/695-systolic"/>
  </request>
</entry>
<entry>
  <resource>
    
    
  <Observation>
  <id value="695-diastolic"/>
    <text>
      <status value="generated"/>
      <div xmlns="http://www.w3.org/1999/xhtml">2005-08-18: Diastolic blood pressure = 62 mm[Hg]</div>
    </text>
    <code>
      <coding>
        <system value="http://loinc.org"/>
        <code value="8462-4"/>
        <display value="Diastolic blood pressure"/>
      </coding>
      <text value="Diastolic blood pressure"/>
    </code>
    <valueQuantity>
      <value value="62.0"/>
      <unit value="mm[Hg]"/>
      <system value="http://unitsofmeasure.org" />
      <code value="mm[Hg]"/>
    </valueQuantity>
    
    <effectiveDateTime value="2005-08-18"/>
    <status value="final"/>
    <subject>
      <reference value="Patient/1186747"/>
    </subject>
  </Observation>
  
  </resource>
  <request>
    <method value="POST"/>
    <url value="Observation/695-diastolic"/>
  </request>
</entry>
  <entry>
  <resource>
    
    
  <Observation>
    <id value="696-bp"/>
    <text>
      <status value="generated"/>
      <div xmlns="http://www.w3.org/1999/xhtml">2007-03-25: Blood pressure 109/66 mmHg</div>
    </text>
    <code>
      <coding>
        <system value="http://loinc.org"/>
        <code value="55284-4"/>
        <display value="Blood pressure systolic and diastolic"/>
      </coding>
      <text value="Blood pressure systolic and diastolic"/>
    </code>
    <effectiveDateTime value="2007-03-25"/>
    <status value="final"/>
    <subject>
      <reference value="Patient/1186747"/>
    </subject>
    <encounter>
      <reference value="Encounter/696"/>
    </encounter>
    

    <component>
        <code>
            <coding>
                <system value="http://loinc.org"/>
                <code value="8480-6"/>
                <display value="Systolic blood pressure"/>
            </coding>
            <text value="Systolic blood pressure"/>
        </code>
        <valueQuantity>
            <value value="109"/>
            <unit value="mmHg"/>
            <system value="http://unitsofmeasure.org" />
            <code value="mm[Hg]"/>
        </valueQuantity>
    </component>

    <component>
        <code>
            <coding>
                <system value="http://loinc.org"/>
                <code value="8462-4"/>
                <display value="Diastolic blood pressure"/>
            </coding>
            <text value="Diastolic blood pressure"/>
        </code>
        <valueQuantity>
            <value value="66"/>
            <unit value="mmHg"/>
            <system value="http://unitsofmeasure.org" />
            <code value="mm[Hg]"/>
        </valueQuantity>
    </component>

  </Observation>
  
  </resource>
  <request>
    <method value="POST"/>
    <url value="Observation/696-bp"/>
  </request>
</entry>
<entry>
  <resource>
    
    
  <Observation>
  <id value="696-systolic"/>
    <text>
      <status value="generated"/>
      <div xmlns="http://www.w3.org/1999/xhtml">2007-03-25: Systolic blood pressure = 109 mm[Hg]</div>
    </text>
    <code>
      <coding>
        <system value="http://loinc.org"/>
        <code value="8480-6"/>
        <display value="Systolic blood pressure"/>
      </coding>
      <text value="Systolic blood pressure"/>
    </code>
    <valueQuantity>
      <value value="109.0"/>
      <unit value="mm[Hg]"/>
      <system value="http://unitsofmeasure.org" />
      <code value="mm[Hg]"/>
    </valueQuantity>
    
    <effectiveDateTime value="2007-03-25"/>
    <status value="final"/>
    <subject>
      <reference value="Patient/1186747"/>
    </subject>
  </Observation>
  
  </resource>
  <request>
    <method value="POST"/>
    <url value="Observation/696-systolic"/>
  </request>
</entry>
<entry>
  <resource>
    
    
  <Observation>
  <id value="696-diastolic"/>
    <text>
      <status value="generated"/>
      <div xmlns="http://www.w3.org/1999/xhtml">2007-03-25: Diastolic blood pressure = 66 mm[Hg]</div>
    </text>
    <code>
      <coding>
        <system value="http://loinc.org"/>
        <code value="8462-4"/>
        <display value="Diastolic blood pressure"/>
      </coding>
      <text value="Diastolic blood pressure"/>
    </code>
    <valueQuantity>
      <value value="66.0"/>
      <unit value="mm[Hg]"/>
      <system value="http://unitsofmeasure.org" />
      <code value="mm[Hg]"/>
    </valueQuantity>
    
    <effectiveDateTime value="2007-03-25"/>
    <status value="final"/>
    <subject>
      <reference value="Patient/1186747"/>
    </subject>
  </Observation>
  
  </resource>
  <request>
    <method value="POST"/>
    <url value="Observation/696-diastolic"/>
  </request>
</entry>
  <entry>
  <resource>
    
    
  <Observation>
    <id value="697-bp"/>
    <text>
      <status value="generated"/>
      <div xmlns="http://www.w3.org/1999/xhtml">2007-08-14: Blood pressure 115/70 mmHg</div>
    </text>
    <code>
      <coding>
        <system value="http://loinc.org"/>
        <code value="55284-4"/>
        <display value="Blood pressure systolic and diastolic"/>
      </coding>
      <text value="Blood pressure systolic and diastolic"/>
    </code>
    <effectiveDateTime value="2007-08-14"/>
    <status value="final"/>
    <subject>
      <reference value="Patient/1186747"/>
    </subject>
    <encounter>
      <reference value="Encounter/697"/>
    </encounter>
    

    <component>
        <code>
            <coding>
                <system value="http://loinc.org"/>
                <code value="8480-6"/>
                <display value="Systolic blood pressure"/>
            </coding>
            <text value="Systolic blood pressure"/>
        </code>
        <valueQuantity>
            <value value="115"/>
            <unit value="mmHg"/>
            <system value="http://unitsofmeasure.org" />
            <code value="mm[Hg]"/>
        </valueQuantity>
    </component>

    <component>
        <code>
            <coding>
                <system value="http://loinc.org"/>
                <code value="8462-4"/>
                <display value="Diastolic blood pressure"/>
            </coding>
            <text value="Diastolic blood pressure"/>
        </code>
        <valueQuantity>
            <value value="70"/>
            <unit value="mmHg"/>
            <system value="http://unitsofmeasure.org" />
            <code value="mm[Hg]"/>
        </valueQuantity>
    </component>

  </Observation>
  
  </resource>
  <request>
    <method value="POST"/>
    <url value="Observation/697-bp"/>
  </request>
</entry>
<entry>
  <resource>
    
    
  <Observation>
  <id value="697-systolic"/>
    <text>
      <status value="generated"/>
      <div xmlns="http://www.w3.org/1999/xhtml">2007-08-14: Systolic blood pressure = 115 mm[Hg]</div>
    </text>
    <code>
      <coding>
        <system value="http://loinc.org"/>
        <code value="8480-6"/>
        <display value="Systolic blood pressure"/>
      </coding>
      <text value="Systolic blood pressure"/>
    </code>
    <valueQuantity>
      <value value="115.0"/>
      <unit value="mm[Hg]"/>
      <system value="http://unitsofmeasure.org" />
      <code value="mm[Hg]"/>
    </valueQuantity>
    
    <effectiveDateTime value="2007-08-14"/>
    <status value="final"/>
    <subject>
      <reference value="Patient/1186747"/>
    </subject>
  </Observation>
  
  </resource>
  <request>
    <method value="POST"/>
    <url value="Observation/697-systolic"/>
  </request>
</entry>
<entry>
  <resource>
    
    
  <Observation>
  <id value="697-diastolic"/>
    <text>
      <status value="generated"/>
      <div xmlns="http://www.w3.org/1999/xhtml">2007-08-14: Diastolic blood pressure = 70 mm[Hg]</div>
    </text>
    <code>
      <coding>
        <system value="http://loinc.org"/>
        <code value="8462-4"/>
        <display value="Diastolic blood pressure"/>
      </coding>
      <text value="Diastolic blood pressure"/>
    </code>
    <valueQuantity>
      <value value="70.0"/>
      <unit value="mm[Hg]"/>
      <system value="http://unitsofmeasure.org" />
      <code value="mm[Hg]"/>
    </valueQuantity>
    
    <effectiveDateTime value="2007-08-14"/>
    <status value="final"/>
    <subject>
      <reference value="Patient/1186747"/>
    </subject>
  </Observation>
  
  </resource>
  <request>
    <method value="POST"/>
    <url value="Observation/697-diastolic"/>
  </request>
</entry>
  <entry>
  <resource>
    
    
  <Observation>
    <id value="698-bp"/>
    <text>
      <status value="generated"/>
      <div xmlns="http://www.w3.org/1999/xhtml">2007-08-15: Blood pressure 112/68 mmHg</div>
    </text>
    <code>
      <coding>
        <system value="http://loinc.org"/>
        <code value="55284-4"/>
        <display value="Blood pressure systolic and diastolic"/>
      </coding>
      <text value="Blood pressure systolic and diastolic"/>
    </code>
    <effectiveDateTime value="2007-08-15"/>
    <status value="final"/>
    <subject>
      <reference value="Patient/1186747"/>
    </subject>
    <encounter>
      <reference value="Encounter/698"/>
    </encounter>
    

    <component>
        <code>
            <coding>
                <system value="http://loinc.org"/>
                <code value="8480-6"/>
                <display value="Systolic blood pressure"/>
            </coding>
            <text value="Systolic blood pressure"/>
        </code>
        <valueQuantity>
            <value value="112"/>
            <unit value="mmHg"/>
            <system value="http://unitsofmeasure.org" />
            <code value="mm[Hg]"/>
        </valueQuantity>
    </component>

    <component>
        <code>
            <coding>
                <system value="http://loinc.org"/>
                <code value="8462-4"/>
                <display value="Diastolic blood pressure"/>
            </coding>
            <text value="Diastolic blood pressure"/>
        </code>
        <valueQuantity>
            <value value="68"/>
            <unit value="mmHg"/>
            <system value="http://unitsofmeasure.org" />
            <code value="mm[Hg]"/>
        </valueQuantity>
    </component>

  </Observation>
  
  </resource>
  <request>
    <method value="POST"/>
    <url value="Observation/698-bp"/>
  </request>
</entry>
<entry>
  <resource>
    
    
  <Observation>
  <id value="698-systolic"/>
    <text>
      <status value="generated"/>
      <div xmlns="http://www.w3.org/1999/xhtml">2007-08-15: Systolic blood pressure = 112 mm[Hg]</div>
    </text>
    <code>
      <coding>
        <system value="http://loinc.org"/>
        <code value="8480-6"/>
        <display value="Systolic blood pressure"/>
      </coding>
      <text value="Systolic blood pressure"/>
    </code>
    <valueQuantity>
      <value value="112.0"/>
      <unit value="mm[Hg]"/>
      <system value="http://unitsofmeasure.org" />
      <code value="mm[Hg]"/>
    </valueQuantity>
    
    <effectiveDateTime value="2007-08-15"/>
    <status value="final"/>
    <subject>
      <reference value="Patient/1186747"/>
    </subject>
  </Observation>
  
  </resource>
  <request>
    <method value="POST"/>
    <url value="Observation/698-systolic"/>
  </request>
</entry>
<entry>
  <resource>
    
    
  <Observation>
  <id value="698-diastolic"/>
    <text>
      <status value="generated"/>
      <div xmlns="http://www.w3.org/1999/xhtml">2007-08-15: Diastolic blood pressure = 68 mm[Hg]</div>
    </text>
    <code>
      <coding>
        <system value="http://loinc.org"/>
        <code value="8462-4"/>
        <display value="Diastolic blood pressure"/>
      </coding>
      <text value="Diastolic blood pressure"/>
    </code>
    <valueQuantity>
      <value value="68.0"/>
      <unit value="mm[Hg]"/>
      <system value="http://unitsofmeasure.org" />
      <code value="mm[Hg]"/>
    </valueQuantity>
    
    <effectiveDateTime value="2007-08-15"/>
    <status value="final"/>
    <subject>
      <reference value="Patient/1186747"/>
    </subject>
  </Observation>
  
  </resource>
  <request>
    <method value="POST"/>
    <url value="Observation/698-diastolic"/>
  </request>
</entry>
  <entry>
  <resource>
    
    
  <Observation>
    <id value="699-bp"/>
    <text>
      <status value="generated"/>
      <div xmlns="http://www.w3.org/1999/xhtml">2007-09-13: Blood pressure 110/67 mmHg</div>
    </text>
    <code>
      <coding>
        <system value="http://loinc.org"/>
        <code value="55284-4"/>
        <display value="Blood pressure systolic and diastolic"/>
      </coding>
      <text value="Blood pressure systolic and diastolic"/>
    </code>
    <effectiveDateTime value="2007-09-13"/>
    <status value="final"/>
    <subject>
      <reference value="Patient/1186747"/>
    </subject>
    <encounter>
      <reference value="Encounter/699"/>
    </encounter>
    

    <component>
        <code>
            <coding>
                <system value="http://loinc.org"/>
                <code value="8480-6"/>
                <display value="Systolic blood pressure"/>
            </coding>
            <text value="Systolic blood pressure"/>
        </code>
        <valueQuantity>
            <value value="110"/>
            <unit value="mmHg"/>
            <system value="http://unitsofmeasure.org" />
            <code value="mm[Hg]"/>
        </valueQuantity>
    </component>

    <component>
        <code>
            <coding>
                <system value="http://loinc.org"/>
                <code value="8462-4"/>
                <display value="Diastolic blood pressure"/>
            </coding>
            <text value="Diastolic blood pressure"/>
        </code>
        <valueQuantity>
            <value value="67"/>
            <unit value="mmHg"/>
            <system value="http://unitsofmeasure.org" />
            <code value="mm[Hg]"/>
        </valueQuantity>
    </component>

  </Observation>
  
  </resource>
  <request>
    <method value="POST"/>
    <url value="Observation/699-bp"/>
  </request>
</entry>
<entry>
  <resource>
    
    
  <Observation>
  <id value="699-systolic"/>
    <text>
      <status value="generated"/>
      <div xmlns="http://www.w3.org/1999/xhtml">2007-09-13: Systolic blood pressure = 110 mm[Hg]</div>
    </text>
    <code>
      <coding>
        <system value="http://loinc.org"/>
        <code value="8480-6"/>
        <display value="Systolic blood pressure"/>
      </coding>
      <text value="Systolic blood pressure"/>
    </code>
    <valueQuantity>
      <value value="110.0"/>
      <unit value="mm[Hg]"/>
      <system value="http://unitsofmeasure.org" />
      <code value="mm[Hg]"/>
    </valueQuantity>
    
    <effectiveDateTime value="2007-09-13"/>
    <status value="final"/>
    <subject>
      <reference value="Patient/1186747"/>
    </subject>
  </Observation>
  
  </resource>
  <request>
    <method value="POST"/>
    <url value="Observation/699-systolic"/>
  </request>
</entry>
<entry>
  <resource>
    
    
  <Observation>
  <id value="699-diastolic"/>
    <text>
      <status value="generated"/>
      <div xmlns="http://www.w3.org/1999/xhtml">2007-09-13: Diastolic blood pressure = 67 mm[Hg]</div>
    </text>
    <code>
      <coding>
        <system value="http://loinc.org"/>
        <code value="8462-4"/>
        <display value="Diastolic blood pressure"/>
      </coding>
      <text value="Diastolic blood pressure"/>
    </code>
    <valueQuantity>
      <value value="67.0"/>
      <unit value="mm[Hg]"/>
      <system value="http://unitsofmeasure.org" />
      <code value="mm[Hg]"/>
    </valueQuantity>
    
    <effectiveDateTime value="2007-09-13"/>
    <status value="final"/>
    <subject>
      <reference value="Patient/1186747"/>
    </subject>
  </Observation>
  
  </resource>
  <request>
    <method value="POST"/>
    <url value="Observation/699-diastolic"/>
  </request>
</entry>
  <entry>
  <resource>
    
    
  <Observation>
    <id value="700-bp"/>
    <text>
      <status value="generated"/>
      <div xmlns="http://www.w3.org/1999/xhtml">2007-09-14: Blood pressure 145/93 mmHg</div>
    </text>
    <code>
      <coding>
        <system value="http://loinc.org"/>
        <code value="55284-4"/>
        <display value="Blood pressure systolic and diastolic"/>
      </coding>
      <text value="Blood pressure systolic and diastolic"/>
    </code>
    <effectiveDateTime value="2007-09-14"/>
    <status value="final"/>
    <subject>
      <reference value="Patient/1186747"/>
    </subject>
    <encounter>
      <reference value="Encounter/700"/>
    </encounter>
    

    <component>
        <code>
            <coding>
                <system value="http://loinc.org"/>
                <code value="8480-6"/>
                <display value="Systolic blood pressure"/>
            </coding>
            <text value="Systolic blood pressure"/>
        </code>
        <valueQuantity>
            <value value="145"/>
            <unit value="mmHg"/>
            <system value="http://unitsofmeasure.org" />
            <code value="mm[Hg]"/>
        </valueQuantity>
    </component>

    <component>
        <code>
            <coding>
                <system value="http://loinc.org"/>
                <code value="8462-4"/>
                <display value="Diastolic blood pressure"/>
            </coding>
            <text value="Diastolic blood pressure"/>
        </code>
        <valueQuantity>
            <value value="93"/>
            <unit value="mmHg"/>
            <system value="http://unitsofmeasure.org" />
            <code value="mm[Hg]"/>
        </valueQuantity>
    </component>

  </Observation>
  
  </resource>
  <request>
    <method value="POST"/>
    <url value="Observation/700-bp"/>
  </request>
</entry>
<entry>
  <resource>
    
    
  <Observation>
  <id value="700-systolic"/>
    <text>
      <status value="generated"/>
      <div xmlns="http://www.w3.org/1999/xhtml">2007-09-14: Systolic blood pressure = 145 mm[Hg]</div>
    </text>
    <code>
      <coding>
        <system value="http://loinc.org"/>
        <code value="8480-6"/>
        <display value="Systolic blood pressure"/>
      </coding>
      <text value="Systolic blood pressure"/>
    </code>
    <valueQuantity>
      <value value="145.0"/>
      <unit value="mm[Hg]"/>
      <system value="http://unitsofmeasure.org" />
      <code value="mm[Hg]"/>
    </valueQuantity>
    
    <effectiveDateTime value="2007-09-14"/>
    <status value="final"/>
    <subject>
      <reference value="Patient/1186747"/>
    </subject>
  </Observation>
  
  </resource>
  <request>
    <method value="POST"/>
    <url value="Observation/700-systolic"/>
  </request>
</entry>
<entry>
  <resource>
    
    
  <Observation>
  <id value="700-diastolic"/>
    <text>
      <status value="generated"/>
      <div xmlns="http://www.w3.org/1999/xhtml">2007-09-14: Diastolic blood pressure = 93 mm[Hg]</div>
    </text>
    <code>
      <coding>
        <system value="http://loinc.org"/>
        <code value="8462-4"/>
        <display value="Diastolic blood pressure"/>
      </coding>
      <text value="Diastolic blood pressure"/>
    </code>
    <valueQuantity>
      <value value="93.0"/>
      <unit value="mm[Hg]"/>
      <system value="http://unitsofmeasure.org" />
      <code value="mm[Hg]"/>
    </valueQuantity>
    
    <effectiveDateTime value="2007-09-14"/>
    <status value="final"/>
    <subject>
      <reference value="Patient/1186747"/>
    </subject>
  </Observation>
  
  </resource>
  <request>
    <method value="POST"/>
    <url value="Observation/700-diastolic"/>
  </request>
</entry>
  <entry>
  <resource>
    
    
  <Observation>
    <id value="701-bp"/>
    <text>
      <status value="generated"/>
      <div xmlns="http://www.w3.org/1999/xhtml">2007-09-24: Blood pressure 146/94 mmHg</div>
    </text>
    <code>
      <coding>
        <system value="http://loinc.org"/>
        <code value="55284-4"/>
        <display value="Blood pressure systolic and diastolic"/>
      </coding>
      <text value="Blood pressure systolic and diastolic"/>
    </code>
    <effectiveDateTime value="2007-09-24"/>
    <status value="final"/>
    <subject>
      <reference value="Patient/1186747"/>
    </subject>
    <encounter>
      <reference value="Encounter/701"/>
    </encounter>
    

    <component>
        <code>
            <coding>
                <system value="http://loinc.org"/>
                <code value="8480-6"/>
                <display value="Systolic blood pressure"/>
            </coding>
            <text value="Systolic blood pressure"/>
        </code>
        <valueQuantity>
            <value value="146"/>
            <unit value="mmHg"/>
            <system value="http://unitsofmeasure.org" />
            <code value="mm[Hg]"/>
        </valueQuantity>
    </component>

    <component>
        <code>
            <coding>
                <system value="http://loinc.org"/>
                <code value="8462-4"/>
                <display value="Diastolic blood pressure"/>
            </coding>
            <text value="Diastolic blood pressure"/>
        </code>
        <valueQuantity>
            <value value="94"/>
            <unit value="mmHg"/>
            <system value="http://unitsofmeasure.org" />
            <code value="mm[Hg]"/>
        </valueQuantity>
    </component>

  </Observation>
  
  </resource>
  <request>
    <method value="POST"/>
    <url value="Observation/701-bp"/>
  </request>
</entry>
<entry>
  <resource>
    
    
  <Observation>
  <id value="701-systolic"/>
    <text>
      <status value="generated"/>
      <div xmlns="http://www.w3.org/1999/xhtml">2007-09-24: Systolic blood pressure = 146 mm[Hg]</div>
    </text>
    <code>
      <coding>
        <system value="http://loinc.org"/>
        <code value="8480-6"/>
        <display value="Systolic blood pressure"/>
      </coding>
      <text value="Systolic blood pressure"/>
    </code>
    <valueQuantity>
      <value value="146.0"/>
      <unit value="mm[Hg]"/>
      <system value="http://unitsofmeasure.org" />
      <code value="mm[Hg]"/>
    </valueQuantity>
    
    <effectiveDateTime value="2007-09-24"/>
    <status value="final"/>
    <subject>
      <reference value="Patient/1186747"/>
    </subject>
  </Observation>
  
  </resource>
  <request>
    <method value="POST"/>
    <url value="Observation/701-systolic"/>
  </request>
</entry>
<entry>
  <resource>
    
    
  <Observation>
  <id value="701-diastolic"/>
    <text>
      <status value="generated"/>
      <div xmlns="http://www.w3.org/1999/xhtml">2007-09-24: Diastolic blood pressure = 94 mm[Hg]</div>
    </text>
    <code>
      <coding>
        <system value="http://loinc.org"/>
        <code value="8462-4"/>
        <display value="Diastolic blood pressure"/>
      </coding>
      <text value="Diastolic blood pressure"/>
    </code>
    <valueQuantity>
      <value value="94.0"/>
      <unit value="mm[Hg]"/>
      <system value="http://unitsofmeasure.org" />
      <code value="mm[Hg]"/>
    </valueQuantity>
    
    <effectiveDateTime value="2007-09-24"/>
    <status value="final"/>
    <subject>
      <reference value="Patient/1186747"/>
    </subject>
  </Observation>
  
  </resource>
  <request>
    <method value="POST"/>
    <url value="Observation/701-diastolic"/>
  </request>
</entry>
  <entry>
  <resource>
    
    
  <Observation>
    <id value="702-bp"/>
    <text>
      <status value="generated"/>
      <div xmlns="http://www.w3.org/1999/xhtml">2007-09-27: Blood pressure 111/67 mmHg</div>
    </text>
    <code>
      <coding>
        <system value="http://loinc.org"/>
        <code value="55284-4"/>
        <display value="Blood pressure systolic and diastolic"/>
      </coding>
      <text value="Blood pressure systolic and diastolic"/>
    </code>
    <effectiveDateTime value="2007-09-27"/>
    <status value="final"/>
    <subject>
      <reference value="Patient/1186747"/>
    </subject>
    <encounter>
      <reference value="Encounter/702"/>
    </encounter>
    

    <component>
        <code>
            <coding>
                <system value="http://loinc.org"/>
                <code value="8480-6"/>
                <display value="Systolic blood pressure"/>
            </coding>
            <text value="Systolic blood pressure"/>
        </code>
        <valueQuantity>
            <value value="111"/>
            <unit value="mmHg"/>
            <system value="http://unitsofmeasure.org" />
            <code value="mm[Hg]"/>
        </valueQuantity>
    </component>

    <component>
        <code>
            <coding>
                <system value="http://loinc.org"/>
                <code value="8462-4"/>
                <display value="Diastolic blood pressure"/>
            </coding>
            <text value="Diastolic blood pressure"/>
        </code>
        <valueQuantity>
            <value value="67"/>
            <unit value="mmHg"/>
            <system value="http://unitsofmeasure.org" />
            <code value="mm[Hg]"/>
        </valueQuantity>
    </component>

  </Observation>
  
  </resource>
  <request>
    <method value="POST"/>
    <url value="Observation/702-bp"/>
  </request>
</entry>
<entry>
  <resource>
    
    
  <Observation>
  <id value="702-systolic"/>
    <text>
      <status value="generated"/>
      <div xmlns="http://www.w3.org/1999/xhtml">2007-09-27: Systolic blood pressure = 111 mm[Hg]</div>
    </text>
    <code>
      <coding>
        <system value="http://loinc.org"/>
        <code value="8480-6"/>
        <display value="Systolic blood pressure"/>
      </coding>
      <text value="Systolic blood pressure"/>
    </code>
    <valueQuantity>
      <value value="111.0"/>
      <unit value="mm[Hg]"/>
      <system value="http://unitsofmeasure.org" />
      <code value="mm[Hg]"/>
    </valueQuantity>
    
    <effectiveDateTime value="2007-09-27"/>
    <status value="final"/>
    <subject>
      <reference value="Patient/1186747"/>
    </subject>
  </Observation>
  
  </resource>
  <request>
    <method value="POST"/>
    <url value="Observation/702-systolic"/>
  </request>
</entry>
<entry>
  <resource>
    
    
  <Observation>
  <id value="702-diastolic"/>
    <text>
      <status value="generated"/>
      <div xmlns="http://www.w3.org/1999/xhtml">2007-09-27: Diastolic blood pressure = 67 mm[Hg]</div>
    </text>
    <code>
      <coding>
        <system value="http://loinc.org"/>
        <code value="8462-4"/>
        <display value="Diastolic blood pressure"/>
      </coding>
      <text value="Diastolic blood pressure"/>
    </code>
    <valueQuantity>
      <value value="67.0"/>
      <unit value="mm[Hg]"/>
      <system value="http://unitsofmeasure.org" />
      <code value="mm[Hg]"/>
    </valueQuantity>
    
    <effectiveDateTime value="2007-09-27"/>
    <status value="final"/>
    <subject>
      <reference value="Patient/1186747"/>
    </subject>
  </Observation>
  
  </resource>
  <request>
    <method value="POST"/>
    <url value="Observation/702-diastolic"/>
  </request>
</entry>
  <entry>
  <resource>
    
    
  <Observation>
    <id value="703-bp"/>
    <text>
      <status value="generated"/>
      <div xmlns="http://www.w3.org/1999/xhtml">2008-12-30: Blood pressure 148/95 mmHg</div>
    </text>
    <code>
      <coding>
        <system value="http://loinc.org"/>
        <code value="55284-4"/>
        <display value="Blood pressure systolic and diastolic"/>
      </coding>
      <text value="Blood pressure systolic and diastolic"/>
    </code>
    <effectiveDateTime value="2008-12-30"/>
    <status value="final"/>
    <subject>
      <reference value="Patient/1186747"/>
    </subject>
    <encounter>
      <reference value="Encounter/703"/>
    </encounter>
    

    <component>
        <code>
            <coding>
                <system value="http://loinc.org"/>
                <code value="8480-6"/>
                <display value="Systolic blood pressure"/>
            </coding>
            <text value="Systolic blood pressure"/>
        </code>
        <valueQuantity>
            <value value="148"/>
            <unit value="mmHg"/>
            <system value="http://unitsofmeasure.org" />
            <code value="mm[Hg]"/>
        </valueQuantity>
    </component>

    <component>
        <code>
            <coding>
                <system value="http://loinc.org"/>
                <code value="8462-4"/>
                <display value="Diastolic blood pressure"/>
            </coding>
            <text value="Diastolic blood pressure"/>
        </code>
        <valueQuantity>
            <value value="95"/>
            <unit value="mmHg"/>
            <system value="http://unitsofmeasure.org" />
            <code value="mm[Hg]"/>
        </valueQuantity>
    </component>

  </Observation>
  
  </resource>
  <request>
    <method value="POST"/>
    <url value="Observation/703-bp"/>
  </request>
</entry>
<entry>
  <resource>
    
    
  <Observation>
  <id value="703-systolic"/>
    <text>
      <status value="generated"/>
      <div xmlns="http://www.w3.org/1999/xhtml">2008-12-30: Systolic blood pressure = 148 mm[Hg]</div>
    </text>
    <code>
      <coding>
        <system value="http://loinc.org"/>
        <code value="8480-6"/>
        <display value="Systolic blood pressure"/>
      </coding>
      <text value="Systolic blood pressure"/>
    </code>
    <valueQuantity>
      <value value="148.0"/>
      <unit value="mm[Hg]"/>
      <system value="http://unitsofmeasure.org" />
      <code value="mm[Hg]"/>
    </valueQuantity>
    
    <effectiveDateTime value="2008-12-30"/>
    <status value="final"/>
    <subject>
      <reference value="Patient/1186747"/>
    </subject>
  </Observation>
  
  </resource>
  <request>
    <method value="POST"/>
    <url value="Observation/703-systolic"/>
  </request>
</entry>
<entry>
  <resource>
    
    
  <Observation>
  <id value="703-diastolic"/>
    <text>
      <status value="generated"/>
      <div xmlns="http://www.w3.org/1999/xhtml">2008-12-30: Diastolic blood pressure = 95 mm[Hg]</div>
    </text>
    <code>
      <coding>
        <system value="http://loinc.org"/>
        <code value="8462-4"/>
        <display value="Diastolic blood pressure"/>
      </coding>
      <text value="Diastolic blood pressure"/>
    </code>
    <valueQuantity>
      <value value="95.0"/>
      <unit value="mm[Hg]"/>
      <system value="http://unitsofmeasure.org" />
      <code value="mm[Hg]"/>
    </valueQuantity>
    
    <effectiveDateTime value="2008-12-30"/>
    <status value="final"/>
    <subject>
      <reference value="Patient/1186747"/>
    </subject>
  </Observation>
  
  </resource>
  <request>
    <method value="POST"/>
    <url value="Observation/703-diastolic"/>
  </request>
</entry>
  <entry>
  <resource>
    
    
  <Observation>
    <id value="704-bp"/>
    <text>
      <status value="generated"/>
      <div xmlns="http://www.w3.org/1999/xhtml">2009-01-05: Blood pressure 120/73 mmHg</div>
    </text>
    <code>
      <coding>
        <system value="http://loinc.org"/>
        <code value="55284-4"/>
        <display value="Blood pressure systolic and diastolic"/>
      </coding>
      <text value="Blood pressure systolic and diastolic"/>
    </code>
    <effectiveDateTime value="2009-01-05"/>
    <status value="final"/>
    <subject>
      <reference value="Patient/1186747"/>
    </subject>
    <encounter>
      <reference value="Encounter/704"/>
    </encounter>
    

    <component>
        <code>
            <coding>
                <system value="http://loinc.org"/>
                <code value="8480-6"/>
                <display value="Systolic blood pressure"/>
            </coding>
            <text value="Systolic blood pressure"/>
        </code>
        <valueQuantity>
            <value value="120"/>
            <unit value="mmHg"/>
            <system value="http://unitsofmeasure.org" />
            <code value="mm[Hg]"/>
        </valueQuantity>
    </component>

    <component>
        <code>
            <coding>
                <system value="http://loinc.org"/>
                <code value="8462-4"/>
                <display value="Diastolic blood pressure"/>
            </coding>
            <text value="Diastolic blood pressure"/>
        </code>
        <valueQuantity>
            <value value="73"/>
            <unit value="mmHg"/>
            <system value="http://unitsofmeasure.org" />
            <code value="mm[Hg]"/>
        </valueQuantity>
    </component>

  </Observation>
  
  </resource>
  <request>
    <method value="POST"/>
    <url value="Observation/704-bp"/>
  </request>
</entry>
<entry>
  <resource>
    
    
  <Observation>
  <id value="704-systolic"/>
    <text>
      <status value="generated"/>
      <div xmlns="http://www.w3.org/1999/xhtml">2009-01-05: Systolic blood pressure = 120 mm[Hg]</div>
    </text>
    <code>
      <coding>
        <system value="http://loinc.org"/>
        <code value="8480-6"/>
        <display value="Systolic blood pressure"/>
      </coding>
      <text value="Systolic blood pressure"/>
    </code>
    <valueQuantity>
      <value value="120.0"/>
      <unit value="mm[Hg]"/>
      <system value="http://unitsofmeasure.org" />
      <code value="mm[Hg]"/>
    </valueQuantity>
    
    <effectiveDateTime value="2009-01-05"/>
    <status value="final"/>
    <subject>
      <reference value="Patient/1186747"/>
    </subject>
  </Observation>
  
  </resource>
  <request>
    <method value="POST"/>
    <url value="Observation/704-systolic"/>
  </request>
</entry>
<entry>
  <resource>
    
    
  <Observation>
  <id value="704-diastolic"/>
    <text>
      <status value="generated"/>
      <div xmlns="http://www.w3.org/1999/xhtml">2009-01-05: Diastolic blood pressure = 73 mm[Hg]</div>
    </text>
    <code>
      <coding>
        <system value="http://loinc.org"/>
        <code value="8462-4"/>
        <display value="Diastolic blood pressure"/>
      </coding>
      <text value="Diastolic blood pressure"/>
    </code>
    <valueQuantity>
      <value value="73.0"/>
      <unit value="mm[Hg]"/>
      <system value="http://unitsofmeasure.org" />
      <code value="mm[Hg]"/>
    </valueQuantity>
    
    <effectiveDateTime value="2009-01-05"/>
    <status value="final"/>
    <subject>
      <reference value="Patient/1186747"/>
    </subject>
  </Observation>
  
  </resource>
  <request>
    <method value="POST"/>
    <url value="Observation/704-diastolic"/>
  </request>
</entry>
<entry>
  <resource>
    
    
  <Observation>
  <id value="691-height"/>
    <text>
      <status value="generated"/>
      <div xmlns="http://www.w3.org/1999/xhtml">1999-07-02: height = 111.506 cm</div>
    </text>
    <code>
      <coding>
        <system value="http://loinc.org"/>
        <code value="8302-2"/>
        <display value="height"/>
      </coding>
      <text value="height"/>
    </code>
    <valueQuantity>
      <value value="111.506"/>
      <unit value="cm"/>
      <system value="http://unitsofmeasure.org" />
      <code value="cm"/>
    </valueQuantity>
    
    <effectiveDateTime value="1999-07-02"/>
    <status value="final"/>
    <subject>
      <reference value="Patient/1186747"/>
    </subject>
    <encounter>
      <reference value="Encounter/691"/>
    </encounter>
    
  </Observation>
  
  </resource>
  <request>
    <method value="POST"/>
    <url value="Observation/691-height"/>
  </request>
</entry>
<entry>
  <resource>
    
    
  <Observation>
  <id value="691-heartrate"/>
    <text>
      <status value="generated"/>
      <div xmlns="http://www.w3.org/1999/xhtml">1999-07-02: heart_rate = 44.0 {beats}/min</div>
    </text>
    <code>
      <coding>
        <system value="http://loinc.org"/>
        <code value="8867-4"/>
        <display value="heart_rate"/>
      </coding>
      <text value="heart_rate"/>
    </code>
    <valueQuantity>
      <value value="44.0"/>
      <unit value="{beats}/min"/>
      <system value="http://unitsofmeasure.org" />
      <code value="{beats}/min"/>
    </valueQuantity>
    
    <effectiveDateTime value="1999-07-02"/>
    <status value="final"/>
    <subject>
      <reference value="Patient/1186747"/>
    </subject>
    <encounter>
      <reference value="Encounter/691"/>
    </encounter>
    
  </Observation>
  
  </resource>
  <request>
    <method value="POST"/>
    <url value="Observation/691-heartrate"/>
  </request>
</entry>
<entry>
  <resource>
    
    
  <Observation>
  <id value="691-respiratoryrate"/>
    <text>
      <status value="generated"/>
      <div xmlns="http://www.w3.org/1999/xhtml">1999-07-02: respiratory_rate = 26.0 {breaths}/min</div>
    </text>
    <code>
      <coding>
        <system value="http://loinc.org"/>
        <code value="9279-1"/>
        <display value="respiratory_rate"/>
      </coding>
      <text value="respiratory_rate"/>
    </code>
    <valueQuantity>
      <value value="26.0"/>
      <unit value="{breaths}/min"/>
      <system value="http://unitsofmeasure.org" />
      <code value="{breaths}/min"/>
    </valueQuantity>
    
    <effectiveDateTime value="1999-07-02"/>
    <status value="final"/>
    <subject>
      <reference value="Patient/1186747"/>
    </subject>
    <encounter>
      <reference value="Encounter/691"/>
    </encounter>
    
  </Observation>
  
  </resource>
  <request>
    <method value="POST"/>
    <url value="Observation/691-respiratoryrate"/>
  </request>
</entry>
<entry>
  <resource>
    
    
  <Observation>
  <id value="691-temperature"/>
    <text>
      <status value="generated"/>
      <div xmlns="http://www.w3.org/1999/xhtml">1999-07-02: temperature = 36.55556 Cel</div>
    </text>
    <code>
      <coding>
        <system value="http://loinc.org"/>
        <code value="8310-5"/>
        <display value="temperature"/>
      </coding>
      <text value="temperature"/>
    </code>
    <valueQuantity>
      <value value="36.55556"/>
      <unit value="Cel"/>
      <system value="http://unitsofmeasure.org" />
      <code value="Cel"/>
    </valueQuantity>
    
    <effectiveDateTime value="1999-07-02"/>
    <status value="final"/>
    <subject>
      <reference value="Patient/1186747"/>
    </subject>
    <encounter>
      <reference value="Encounter/691"/>
    </encounter>
    
  </Observation>
  
  </resource>
  <request>
    <method value="POST"/>
    <url value="Observation/691-temperature"/>
  </request>
</entry>
<entry>
  <resource>
    
    
  <Observation>
  <id value="691-weight"/>
    <text>
      <status value="generated"/>
      <div xmlns="http://www.w3.org/1999/xhtml">1999-07-02: weight = 20.09414 kg</div>
    </text>
    <code>
      <coding>
        <system value="http://loinc.org"/>
        <code value="3141-9"/>
        <display value="weight"/>
      </coding>
      <text value="weight"/>
    </code>
    <valueQuantity>
      <value value="20.09414"/>
      <unit value="kg"/>
      <system value="http://unitsofmeasure.org" />
      <code value="kg"/>
    </valueQuantity>
    
    <effectiveDateTime value="1999-07-02"/>
    <status value="final"/>
    <subject>
      <reference value="Patient/1186747"/>
    </subject>
    <encounter>
      <reference value="Encounter/691"/>
    </encounter>
    
  </Observation>
  
  </resource>
  <request>
    <method value="POST"/>
    <url value="Observation/691-weight"/>
  </request>
</entry>
<entry>
  <resource>
    
    
  <Observation>
  <id value="691-bmi"/>
    <text>
      <status value="generated"/>
      <div xmlns="http://www.w3.org/1999/xhtml">1999-07-02: bmi = 16.2 kg/m2</div>
    </text>
    <code>
      <coding>
        <system value="http://loinc.org"/>
        <code value="39156-5"/>
        <display value="bmi"/>
      </coding>
      <text value="bmi"/>
    </code>
    <valueQuantity>
      <value value="16.2"/>
      <unit value="kg/m2"/>
      <system value="http://unitsofmeasure.org" />
      <code value="kg/m2"/>
    </valueQuantity>
    
    <effectiveDateTime value="1999-07-02"/>
    <status value="final"/>
    <subject>
      <reference value="Patient/1186747"/>
    </subject>
    <encounter>
      <reference value="Encounter/691"/>
    </encounter>
    
  </Observation>
  
  </resource>
  <request>
    <method value="POST"/>
    <url value="Observation/691-bmi"/>
  </request>
</entry>
<entry>
  <resource>
    
    
  <Observation>
  <id value="691-oxygensaturation"/>
    <text>
      <status value="generated"/>
      <div xmlns="http://www.w3.org/1999/xhtml">1999-07-02: oxygen_saturation = 99.0 %{HemoglobinSaturation}</div>
    </text>
    <code>
      <coding>
        <system value="http://loinc.org"/>
        <code value="2710-2"/>
        <display value="oxygen_saturation"/>
      </coding>
      <text value="oxygen_saturation"/>
    </code>
    <valueQuantity>
      <value value="99.0"/>
      <unit value="%{HemoglobinSaturation}"/>
      <system value="http://unitsofmeasure.org" />
      <code value="%{HemoglobinSaturation}"/>
    </valueQuantity>
    
    <effectiveDateTime value="1999-07-02"/>
    <status value="final"/>
    <subject>
      <reference value="Patient/1186747"/>
    </subject>
    <encounter>
      <reference value="Encounter/691"/>
    </encounter>
    
  </Observation>
  
  </resource>
  <request>
    <method value="POST"/>
    <url value="Observation/691-oxygensaturation"/>
  </request>
</entry>
<entry>
  <resource>
    
    
  <Observation>
  <id value="692-height"/>
    <text>
      <status value="generated"/>
      <div xmlns="http://www.w3.org/1999/xhtml">2004-08-03: height = 143.256 cm</div>
    </text>
    <code>
      <coding>
        <system value="http://loinc.org"/>
        <code value="8302-2"/>
        <display value="height"/>
      </coding>
      <text value="height"/>
    </code>
    <valueQuantity>
      <value value="143.256"/>
      <unit value="cm"/>
      <system value="http://unitsofmeasure.org" />
      <code value="cm"/>
    </valueQuantity>
    
    <effectiveDateTime value="2004-08-03"/>
    <status value="final"/>
    <subject>
      <reference value="Patient/1186747"/>
    </subject>
    <encounter>
      <reference value="Encounter/692"/>
    </encounter>
    
  </Observation>
  
  </resource>
  <request>
    <method value="POST"/>
    <url value="Observation/692-height"/>
  </request>
</entry>
<entry>
  <resource>
    
    
  <Observation>
  <id value="692-heartrate"/>
    <text>
      <status value="generated"/>
      <div xmlns="http://www.w3.org/1999/xhtml">2004-08-03: heart_rate = 79.0 {beats}/min</div>
    </text>
    <code>
      <coding>
        <system value="http://loinc.org"/>
        <code value="8867-4"/>
        <display value="heart_rate"/>
      </coding>
      <text value="heart_rate"/>
    </code>
    <valueQuantity>
      <value value="79.0"/>
      <unit value="{beats}/min"/>
      <system value="http://unitsofmeasure.org" />
      <code value="{beats}/min"/>
    </valueQuantity>
    
    <effectiveDateTime value="2004-08-03"/>
    <status value="final"/>
    <subject>
      <reference value="Patient/1186747"/>
    </subject>
    <encounter>
      <reference value="Encounter/692"/>
    </encounter>
    
  </Observation>
  
  </resource>
  <request>
    <method value="POST"/>
    <url value="Observation/692-heartrate"/>
  </request>
</entry>
<entry>
  <resource>
    
    
  <Observation>
  <id value="692-respiratoryrate"/>
    <text>
      <status value="generated"/>
      <div xmlns="http://www.w3.org/1999/xhtml">2004-08-03: respiratory_rate = 23.0 {breaths}/min</div>
    </text>
    <code>
      <coding>
        <system value="http://loinc.org"/>
        <code value="9279-1"/>
        <display value="respiratory_rate"/>
      </coding>
      <text value="respiratory_rate"/>
    </code>
    <valueQuantity>
      <value value="23.0"/>
      <unit value="{breaths}/min"/>
      <system value="http://unitsofmeasure.org" />
      <code value="{breaths}/min"/>
    </valueQuantity>
    
    <effectiveDateTime value="2004-08-03"/>
    <status value="final"/>
    <subject>
      <reference value="Patient/1186747"/>
    </subject>
    <encounter>
      <reference value="Encounter/692"/>
    </encounter>
    
  </Observation>
  
  </resource>
  <request>
    <method value="POST"/>
    <url value="Observation/692-respiratoryrate"/>
  </request>
</entry>
<entry>
  <resource>
    
    
  <Observation>
  <id value="692-temperature"/>
    <text>
      <status value="generated"/>
      <div xmlns="http://www.w3.org/1999/xhtml">2004-08-03: temperature = 36.55556 Cel</div>
    </text>
    <code>
      <coding>
        <system value="http://loinc.org"/>
        <code value="8310-5"/>
        <display value="temperature"/>
      </coding>
      <text value="temperature"/>
    </code>
    <valueQuantity>
      <value value="36.55556"/>
      <unit value="Cel"/>
      <system value="http://unitsofmeasure.org" />
      <code value="Cel"/>
    </valueQuantity>
    
    <effectiveDateTime value="2004-08-03"/>
    <status value="final"/>
    <subject>
      <reference value="Patient/1186747"/>
    </subject>
    <encounter>
      <reference value="Encounter/692"/>
    </encounter>
    
  </Observation>
  
  </resource>
  <request>
    <method value="POST"/>
    <url value="Observation/692-temperature"/>
  </request>
</entry>
<entry>
  <resource>
    
    
  <Observation>
  <id value="692-weight"/>
    <text>
      <status value="generated"/>
      <div xmlns="http://www.w3.org/1999/xhtml">2004-08-03: weight = 39.37182 kg</div>
    </text>
    <code>
      <coding>
        <system value="http://loinc.org"/>
        <code value="3141-9"/>
        <display value="weight"/>
      </coding>
      <text value="weight"/>
    </code>
    <valueQuantity>
      <value value="39.37182"/>
      <unit value="kg"/>
      <system value="http://unitsofmeasure.org" />
      <code value="kg"/>
    </valueQuantity>
    
    <effectiveDateTime value="2004-08-03"/>
    <status value="final"/>
    <subject>
      <reference value="Patient/1186747"/>
    </subject>
    <encounter>
      <reference value="Encounter/692"/>
    </encounter>
    
  </Observation>
  
  </resource>
  <request>
    <method value="POST"/>
    <url value="Observation/692-weight"/>
  </request>
</entry>
<entry>
  <resource>
    
    
  <Observation>
  <id value="692-bmi"/>
    <text>
      <status value="generated"/>
      <div xmlns="http://www.w3.org/1999/xhtml">2004-08-03: bmi = 19.2 kg/m2</div>
    </text>
    <code>
      <coding>
        <system value="http://loinc.org"/>
        <code value="39156-5"/>
        <display value="bmi"/>
      </coding>
      <text value="bmi"/>
    </code>
    <valueQuantity>
      <value value="19.2"/>
      <unit value="kg/m2"/>
      <system value="http://unitsofmeasure.org" />
      <code value="kg/m2"/>
    </valueQuantity>
    
    <effectiveDateTime value="2004-08-03"/>
    <status value="final"/>
    <subject>
      <reference value="Patient/1186747"/>
    </subject>
    <encounter>
      <reference value="Encounter/692"/>
    </encounter>
    
  </Observation>
  
  </resource>
  <request>
    <method value="POST"/>
    <url value="Observation/692-bmi"/>
  </request>
</entry>
<entry>
  <resource>
    
    
  <Observation>
  <id value="692-oxygensaturation"/>
    <text>
      <status value="generated"/>
      <div xmlns="http://www.w3.org/1999/xhtml">2004-08-03: oxygen_saturation = 98.0 %{HemoglobinSaturation}</div>
    </text>
    <code>
      <coding>
        <system value="http://loinc.org"/>
        <code value="2710-2"/>
        <display value="oxygen_saturation"/>
      </coding>
      <text value="oxygen_saturation"/>
    </code>
    <valueQuantity>
      <value value="98.0"/>
      <unit value="%{HemoglobinSaturation}"/>
      <system value="http://unitsofmeasure.org" />
      <code value="%{HemoglobinSaturation}"/>
    </valueQuantity>
    
    <effectiveDateTime value="2004-08-03"/>
    <status value="final"/>
    <subject>
      <reference value="Patient/1186747"/>
    </subject>
    <encounter>
      <reference value="Encounter/692"/>
    </encounter>
    
  </Observation>
  
  </resource>
  <request>
    <method value="POST"/>
    <url value="Observation/692-oxygensaturation"/>
  </request>
</entry>
<entry>
  <resource>
    
    
  <Observation>
  <id value="693-height"/>
    <text>
      <status value="generated"/>
      <div xmlns="http://www.w3.org/1999/xhtml">2004-08-05: height = 143.51 cm</div>
    </text>
    <code>
      <coding>
        <system value="http://loinc.org"/>
        <code value="8302-2"/>
        <display value="height"/>
      </coding>
      <text value="height"/>
    </code>
    <valueQuantity>
      <value value="143.51"/>
      <unit value="cm"/>
      <system value="http://unitsofmeasure.org" />
      <code value="cm"/>
    </valueQuantity>
    
    <effectiveDateTime value="2004-08-05"/>
    <status value="final"/>
    <subject>
      <reference value="Patient/1186747"/>
    </subject>
    <encounter>
      <reference value="Encounter/693"/>
    </encounter>
    
  </Observation>
  
  </resource>
  <request>
    <method value="POST"/>
    <url value="Observation/693-height"/>
  </request>
</entry>
<entry>
  <resource>
    
    
  <Observation>
  <id value="693-heartrate"/>
    <text>
      <status value="generated"/>
      <div xmlns="http://www.w3.org/1999/xhtml">2004-08-05: heart_rate = 61.0 {beats}/min</div>
    </text>
    <code>
      <coding>
        <system value="http://loinc.org"/>
        <code value="8867-4"/>
        <display value="heart_rate"/>
      </coding>
      <text value="heart_rate"/>
    </code>
    <valueQuantity>
      <value value="61.0"/>
      <unit value="{beats}/min"/>
      <system value="http://unitsofmeasure.org" />
      <code value="{beats}/min"/>
    </valueQuantity>
    
    <effectiveDateTime value="2004-08-05"/>
    <status value="final"/>
    <subject>
      <reference value="Patient/1186747"/>
    </subject>
    <encounter>
      <reference value="Encounter/693"/>
    </encounter>
    
  </Observation>
  
  </resource>
  <request>
    <method value="POST"/>
    <url value="Observation/693-heartrate"/>
  </request>
</entry>
<entry>
  <resource>
    
    
  <Observation>
  <id value="693-respiratoryrate"/>
    <text>
      <status value="generated"/>
      <div xmlns="http://www.w3.org/1999/xhtml">2004-08-05: respiratory_rate = 23.0 {breaths}/min</div>
    </text>
    <code>
      <coding>
        <system value="http://loinc.org"/>
        <code value="9279-1"/>
        <display value="respiratory_rate"/>
      </coding>
      <text value="respiratory_rate"/>
    </code>
    <valueQuantity>
      <value value="23.0"/>
      <unit value="{breaths}/min"/>
      <system value="http://unitsofmeasure.org" />
      <code value="{breaths}/min"/>
    </valueQuantity>
    
    <effectiveDateTime value="2004-08-05"/>
    <status value="final"/>
    <subject>
      <reference value="Patient/1186747"/>
    </subject>
    <encounter>
      <reference value="Encounter/693"/>
    </encounter>
    
  </Observation>
  
  </resource>
  <request>
    <method value="POST"/>
    <url value="Observation/693-respiratoryrate"/>
  </request>
</entry>
<entry>
  <resource>
    
    
  <Observation>
  <id value="693-temperature"/>
    <text>
      <status value="generated"/>
      <div xmlns="http://www.w3.org/1999/xhtml">2004-08-05: temperature = 36.55556 Cel</div>
    </text>
    <code>
      <coding>
        <system value="http://loinc.org"/>
        <code value="8310-5"/>
        <display value="temperature"/>
      </coding>
      <text value="temperature"/>
    </code>
    <valueQuantity>
      <value value="36.55556"/>
      <unit value="Cel"/>
      <system value="http://unitsofmeasure.org" />
      <code value="Cel"/>
    </valueQuantity>
    
    <effectiveDateTime value="2004-08-05"/>
    <status value="final"/>
    <subject>
      <reference value="Patient/1186747"/>
    </subject>
    <encounter>
      <reference value="Encounter/693"/>
    </encounter>
    
  </Observation>
  
  </resource>
  <request>
    <method value="POST"/>
    <url value="Observation/693-temperature"/>
  </request>
</entry>
<entry>
  <resource>
    
    
  <Observation>
  <id value="693-weight"/>
    <text>
      <status value="generated"/>
      <div xmlns="http://www.w3.org/1999/xhtml">2004-08-05: weight = 39.96149 kg</div>
    </text>
    <code>
      <coding>
        <system value="http://loinc.org"/>
        <code value="3141-9"/>
        <display value="weight"/>
      </coding>
      <text value="weight"/>
    </code>
    <valueQuantity>
      <value value="39.96149"/>
      <unit value="kg"/>
      <system value="http://unitsofmeasure.org" />
      <code value="kg"/>
    </valueQuantity>
    
    <effectiveDateTime value="2004-08-05"/>
    <status value="final"/>
    <subject>
      <reference value="Patient/1186747"/>
    </subject>
    <encounter>
      <reference value="Encounter/693"/>
    </encounter>
    
  </Observation>
  
  </resource>
  <request>
    <method value="POST"/>
    <url value="Observation/693-weight"/>
  </request>
</entry>
<entry>
  <resource>
    
    
  <Observation>
  <id value="693-bmi"/>
    <text>
      <status value="generated"/>
      <div xmlns="http://www.w3.org/1999/xhtml">2004-08-05: bmi = 19.4 kg/m2</div>
    </text>
    <code>
      <coding>
        <system value="http://loinc.org"/>
        <code value="39156-5"/>
        <display value="bmi"/>
      </coding>
      <text value="bmi"/>
    </code>
    <valueQuantity>
      <value value="19.4"/>
      <unit value="kg/m2"/>
      <system value="http://unitsofmeasure.org" />
      <code value="kg/m2"/>
    </valueQuantity>
    
    <effectiveDateTime value="2004-08-05"/>
    <status value="final"/>
    <subject>
      <reference value="Patient/1186747"/>
    </subject>
    <encounter>
      <reference value="Encounter/693"/>
    </encounter>
    
  </Observation>
  
  </resource>
  <request>
    <method value="POST"/>
    <url value="Observation/693-bmi"/>
  </request>
</entry>
<entry>
  <resource>
    
    
  <Observation>
  <id value="693-oxygensaturation"/>
    <text>
      <status value="generated"/>
      <div xmlns="http://www.w3.org/1999/xhtml">2004-08-05: oxygen_saturation = 98.0 %{HemoglobinSaturation}</div>
    </text>
    <code>
      <coding>
        <system value="http://loinc.org"/>
        <code value="2710-2"/>
        <display value="oxygen_saturation"/>
      </coding>
      <text value="oxygen_saturation"/>
    </code>
    <valueQuantity>
      <value value="98.0"/>
      <unit value="%{HemoglobinSaturation}"/>
      <system value="http://unitsofmeasure.org" />
      <code value="%{HemoglobinSaturation}"/>
    </valueQuantity>
    
    <effectiveDateTime value="2004-08-05"/>
    <status value="final"/>
    <subject>
      <reference value="Patient/1186747"/>
    </subject>
    <encounter>
      <reference value="Encounter/693"/>
    </encounter>
    
  </Observation>
  
  </resource>
  <request>
    <method value="POST"/>
    <url value="Observation/693-oxygensaturation"/>
  </request>
</entry>
<entry>
  <resource>
    
    
  <Observation>
  <id value="694-height"/>
    <text>
      <status value="generated"/>
      <div xmlns="http://www.w3.org/1999/xhtml">2004-12-03: height = 143.51 cm</div>
    </text>
    <code>
      <coding>
        <system value="http://loinc.org"/>
        <code value="8302-2"/>
        <display value="height"/>
      </coding>
      <text value="height"/>
    </code>
    <valueQuantity>
      <value value="143.51"/>
      <unit value="cm"/>
      <system value="http://unitsofmeasure.org" />
      <code value="cm"/>
    </valueQuantity>
    
    <effectiveDateTime value="2004-12-03"/>
    <status value="final"/>
    <subject>
      <reference value="Patient/1186747"/>
    </subject>
    <encounter>
      <reference value="Encounter/694"/>
    </encounter>
    
  </Observation>
  
  </resource>
  <request>
    <method value="POST"/>
    <url value="Observation/694-height"/>
  </request>
</entry>
<entry>
  <resource>
    
    
  <Observation>
  <id value="694-heartrate"/>
    <text>
      <status value="generated"/>
      <div xmlns="http://www.w3.org/1999/xhtml">2004-12-03: heart_rate = 90.0 {beats}/min</div>
    </text>
    <code>
      <coding>
        <system value="http://loinc.org"/>
        <code value="8867-4"/>
        <display value="heart_rate"/>
      </coding>
      <text value="heart_rate"/>
    </code>
    <valueQuantity>
      <value value="90.0"/>
      <unit value="{beats}/min"/>
      <system value="http://unitsofmeasure.org" />
      <code value="{beats}/min"/>
    </valueQuantity>
    
    <effectiveDateTime value="2004-12-03"/>
    <status value="final"/>
    <subject>
      <reference value="Patient/1186747"/>
    </subject>
    <encounter>
      <reference value="Encounter/694"/>
    </encounter>
    
  </Observation>
  
  </resource>
  <request>
    <method value="POST"/>
    <url value="Observation/694-heartrate"/>
  </request>
</entry>
<entry>
  <resource>
    
    
  <Observation>
  <id value="694-respiratoryrate"/>
    <text>
      <status value="generated"/>
      <div xmlns="http://www.w3.org/1999/xhtml">2004-12-03: respiratory_rate = 23.0 {breaths}/min</div>
    </text>
    <code>
      <coding>
        <system value="http://loinc.org"/>
        <code value="9279-1"/>
        <display value="respiratory_rate"/>
      </coding>
      <text value="respiratory_rate"/>
    </code>
    <valueQuantity>
      <value value="23.0"/>
      <unit value="{breaths}/min"/>
      <system value="http://unitsofmeasure.org" />
      <code value="{breaths}/min"/>
    </valueQuantity>
    
    <effectiveDateTime value="2004-12-03"/>
    <status value="final"/>
    <subject>
      <reference value="Patient/1186747"/>
    </subject>
    <encounter>
      <reference value="Encounter/694"/>
    </encounter>
    
  </Observation>
  
  </resource>
  <request>
    <method value="POST"/>
    <url value="Observation/694-respiratoryrate"/>
  </request>
</entry>
<entry>
  <resource>
    
    
  <Observation>
  <id value="694-temperature"/>
    <text>
      <status value="generated"/>
      <div xmlns="http://www.w3.org/1999/xhtml">2004-12-03: temperature = 36.55556 Cel</div>
    </text>
    <code>
      <coding>
        <system value="http://loinc.org"/>
        <code value="8310-5"/>
        <display value="temperature"/>
      </coding>
      <text value="temperature"/>
    </code>
    <valueQuantity>
      <value value="36.55556"/>
      <unit value="Cel"/>
      <system value="http://unitsofmeasure.org" />
      <code value="Cel"/>
    </valueQuantity>
    
    <effectiveDateTime value="2004-12-03"/>
    <status value="final"/>
    <subject>
      <reference value="Patient/1186747"/>
    </subject>
    <encounter>
      <reference value="Encounter/694"/>
    </encounter>
    
  </Observation>
  
  </resource>
  <request>
    <method value="POST"/>
    <url value="Observation/694-temperature"/>
  </request>
</entry>
<entry>
  <resource>
    
    
  <Observation>
  <id value="694-weight"/>
    <text>
      <status value="generated"/>
      <div xmlns="http://www.w3.org/1999/xhtml">2004-12-03: weight = 39.78005 kg</div>
    </text>
    <code>
      <coding>
        <system value="http://loinc.org"/>
        <code value="3141-9"/>
        <display value="weight"/>
      </coding>
      <text value="weight"/>
    </code>
    <valueQuantity>
      <value value="39.78005"/>
      <unit value="kg"/>
      <system value="http://unitsofmeasure.org" />
      <code value="kg"/>
    </valueQuantity>
    
    <effectiveDateTime value="2004-12-03"/>
    <status value="final"/>
    <subject>
      <reference value="Patient/1186747"/>
    </subject>
    <encounter>
      <reference value="Encounter/694"/>
    </encounter>
    
  </Observation>
  
  </resource>
  <request>
    <method value="POST"/>
    <url value="Observation/694-weight"/>
  </request>
</entry>
<entry>
  <resource>
    
    
  <Observation>
  <id value="694-bmi"/>
    <text>
      <status value="generated"/>
      <div xmlns="http://www.w3.org/1999/xhtml">2004-12-03: bmi = 19.3 kg/m2</div>
    </text>
    <code>
      <coding>
        <system value="http://loinc.org"/>
        <code value="39156-5"/>
        <display value="bmi"/>
      </coding>
      <text value="bmi"/>
    </code>
    <valueQuantity>
      <value value="19.3"/>
      <unit value="kg/m2"/>
      <system value="http://unitsofmeasure.org" />
      <code value="kg/m2"/>
    </valueQuantity>
    
    <effectiveDateTime value="2004-12-03"/>
    <status value="final"/>
    <subject>
      <reference value="Patient/1186747"/>
    </subject>
    <encounter>
      <reference value="Encounter/694"/>
    </encounter>
    
  </Observation>
  
  </resource>
  <request>
    <method value="POST"/>
    <url value="Observation/694-bmi"/>
  </request>
</entry>
<entry>
  <resource>
    
    
  <Observation>
  <id value="694-oxygensaturation"/>
    <text>
      <status value="generated"/>
      <div xmlns="http://www.w3.org/1999/xhtml">2004-12-03: oxygen_saturation = 98.0 %{HemoglobinSaturation}</div>
    </text>
    <code>
      <coding>
        <system value="http://loinc.org"/>
        <code value="2710-2"/>
        <display value="oxygen_saturation"/>
      </coding>
      <text value="oxygen_saturation"/>
    </code>
    <valueQuantity>
      <value value="98.0"/>
      <unit value="%{HemoglobinSaturation}"/>
      <system value="http://unitsofmeasure.org" />
      <code value="%{HemoglobinSaturation}"/>
    </valueQuantity>
    
    <effectiveDateTime value="2004-12-03"/>
    <status value="final"/>
    <subject>
      <reference value="Patient/1186747"/>
    </subject>
    <encounter>
      <reference value="Encounter/694"/>
    </encounter>
    
  </Observation>
  
  </resource>
  <request>
    <method value="POST"/>
    <url value="Observation/694-oxygensaturation"/>
  </request>
</entry>
<entry>
  <resource>
    
    
  <Observation>
  <id value="695-height"/>
    <text>
      <status value="generated"/>
      <div xmlns="http://www.w3.org/1999/xhtml">2005-08-18: height = 150.368 cm</div>
    </text>
    <code>
      <coding>
        <system value="http://loinc.org"/>
        <code value="8302-2"/>
        <display value="height"/>
      </coding>
      <text value="height"/>
    </code>
    <valueQuantity>
      <value value="150.368"/>
      <unit value="cm"/>
      <system value="http://unitsofmeasure.org" />
      <code value="cm"/>
    </valueQuantity>
    
    <effectiveDateTime value="2005-08-18"/>
    <status value="final"/>
    <subject>
      <reference value="Patient/1186747"/>
    </subject>
    <encounter>
      <reference value="Encounter/695"/>
    </encounter>
    
  </Observation>
  
  </resource>
  <request>
    <method value="POST"/>
    <url value="Observation/695-height"/>
  </request>
</entry>
<entry>
  <resource>
    
    
  <Observation>
  <id value="695-heartrate"/>
    <text>
      <status value="generated"/>
      <div xmlns="http://www.w3.org/1999/xhtml">2005-08-18: heart_rate = 62.0 {beats}/min</div>
    </text>
    <code>
      <coding>
        <system value="http://loinc.org"/>
        <code value="8867-4"/>
        <display value="heart_rate"/>
      </coding>
      <text value="heart_rate"/>
    </code>
    <valueQuantity>
      <value value="62.0"/>
      <unit value="{beats}/min"/>
      <system value="http://unitsofmeasure.org" />
      <code value="{beats}/min"/>
    </valueQuantity>
    
    <effectiveDateTime value="2005-08-18"/>
    <status value="final"/>
    <subject>
      <reference value="Patient/1186747"/>
    </subject>
    <encounter>
      <reference value="Encounter/695"/>
    </encounter>
    
  </Observation>
  
  </resource>
  <request>
    <method value="POST"/>
    <url value="Observation/695-heartrate"/>
  </request>
</entry>
<entry>
  <resource>
    
    
  <Observation>
  <id value="695-respiratoryrate"/>
    <text>
      <status value="generated"/>
      <div xmlns="http://www.w3.org/1999/xhtml">2005-08-18: respiratory_rate = 25.0 {breaths}/min</div>
    </text>
    <code>
      <coding>
        <system value="http://loinc.org"/>
        <code value="9279-1"/>
        <display value="respiratory_rate"/>
      </coding>
      <text value="respiratory_rate"/>
    </code>
    <valueQuantity>
      <value value="25.0"/>
      <unit value="{breaths}/min"/>
      <system value="http://unitsofmeasure.org" />
      <code value="{breaths}/min"/>
    </valueQuantity>
    
    <effectiveDateTime value="2005-08-18"/>
    <status value="final"/>
    <subject>
      <reference value="Patient/1186747"/>
    </subject>
    <encounter>
      <reference value="Encounter/695"/>
    </encounter>
    
  </Observation>
  
  </resource>
  <request>
    <method value="POST"/>
    <url value="Observation/695-respiratoryrate"/>
  </request>
</entry>
<entry>
  <resource>
    
    
  <Observation>
  <id value="695-temperature"/>
    <text>
      <status value="generated"/>
      <div xmlns="http://www.w3.org/1999/xhtml">2005-08-18: temperature = 36.55556 Cel</div>
    </text>
    <code>
      <coding>
        <system value="http://loinc.org"/>
        <code value="8310-5"/>
        <display value="temperature"/>
      </coding>
      <text value="temperature"/>
    </code>
    <valueQuantity>
      <value value="36.55556"/>
      <unit value="Cel"/>
      <system value="http://unitsofmeasure.org" />
      <code value="Cel"/>
    </valueQuantity>
    
    <effectiveDateTime value="2005-08-18"/>
    <status value="final"/>
    <subject>
      <reference value="Patient/1186747"/>
    </subject>
    <encounter>
      <reference value="Encounter/695"/>
    </encounter>
    
  </Observation>
  
  </resource>
  <request>
    <method value="POST"/>
    <url value="Observation/695-temperature"/>
  </request>
</entry>
<entry>
  <resource>
    
    
  <Observation>
  <id value="695-weight"/>
    <text>
      <status value="generated"/>
      <div xmlns="http://www.w3.org/1999/xhtml">2005-08-18: weight = 52.84351 kg</div>
    </text>
    <code>
      <coding>
        <system value="http://loinc.org"/>
        <code value="3141-9"/>
        <display value="weight"/>
      </coding>
      <text value="weight"/>
    </code>
    <valueQuantity>
      <value value="52.84351"/>
      <unit value="kg"/>
      <system value="http://unitsofmeasure.org" />
      <code value="kg"/>
    </valueQuantity>
    
    <effectiveDateTime value="2005-08-18"/>
    <status value="final"/>
    <subject>
      <reference value="Patient/1186747"/>
    </subject>
    <encounter>
      <reference value="Encounter/695"/>
    </encounter>
    
  </Observation>
  
  </resource>
  <request>
    <method value="POST"/>
    <url value="Observation/695-weight"/>
  </request>
</entry>
<entry>
  <resource>
    
    
  <Observation>
  <id value="695-bmi"/>
    <text>
      <status value="generated"/>
      <div xmlns="http://www.w3.org/1999/xhtml">2005-08-18: bmi = 23.3 kg/m2</div>
    </text>
    <code>
      <coding>
        <system value="http://loinc.org"/>
        <code value="39156-5"/>
        <display value="bmi"/>
      </coding>
      <text value="bmi"/>
    </code>
    <valueQuantity>
      <value value="23.3"/>
      <unit value="kg/m2"/>
      <system value="http://unitsofmeasure.org" />
      <code value="kg/m2"/>
    </valueQuantity>
    
    <effectiveDateTime value="2005-08-18"/>
    <status value="final"/>
    <subject>
      <reference value="Patient/1186747"/>
    </subject>
    <encounter>
      <reference value="Encounter/695"/>
    </encounter>
    
  </Observation>
  
  </resource>
  <request>
    <method value="POST"/>
    <url value="Observation/695-bmi"/>
  </request>
</entry>
<entry>
  <resource>
    
    
  <Observation>
  <id value="695-oxygensaturation"/>
    <text>
      <status value="generated"/>
      <div xmlns="http://www.w3.org/1999/xhtml">2005-08-18: oxygen_saturation = 99.0 %{HemoglobinSaturation}</div>
    </text>
    <code>
      <coding>
        <system value="http://loinc.org"/>
        <code value="2710-2"/>
        <display value="oxygen_saturation"/>
      </coding>
      <text value="oxygen_saturation"/>
    </code>
    <valueQuantity>
      <value value="99.0"/>
      <unit value="%{HemoglobinSaturation}"/>
      <system value="http://unitsofmeasure.org" />
      <code value="%{HemoglobinSaturation}"/>
    </valueQuantity>
    
    <effectiveDateTime value="2005-08-18"/>
    <status value="final"/>
    <subject>
      <reference value="Patient/1186747"/>
    </subject>
    <encounter>
      <reference value="Encounter/695"/>
    </encounter>
    
  </Observation>
  
  </resource>
  <request>
    <method value="POST"/>
    <url value="Observation/695-oxygensaturation"/>
  </request>
</entry>
<entry>
  <resource>
    
    
  <Observation>
  <id value="696-height"/>
    <text>
      <status value="generated"/>
      <div xmlns="http://www.w3.org/1999/xhtml">2007-03-25: height = 166.37 cm</div>
    </text>
    <code>
      <coding>
        <system value="http://loinc.org"/>
        <code value="8302-2"/>
        <display value="height"/>
      </coding>
      <text value="height"/>
    </code>
    <valueQuantity>
      <value value="166.37"/>
      <unit value="cm"/>
      <system value="http://unitsofmeasure.org" />
      <code value="cm"/>
    </valueQuantity>
    
    <effectiveDateTime value="2007-03-25"/>
    <status value="final"/>
    <subject>
      <reference value="Patient/1186747"/>
    </subject>
    <encounter>
      <reference value="Encounter/696"/>
    </encounter>
    
  </Observation>
  
  </resource>
  <request>
    <method value="POST"/>
    <url value="Observation/696-height"/>
  </request>
</entry>
<entry>
  <resource>
    
    
  <Observation>
  <id value="696-heartrate"/>
    <text>
      <status value="generated"/>
      <div xmlns="http://www.w3.org/1999/xhtml">2007-03-25: heart_rate = 66.0 {beats}/min</div>
    </text>
    <code>
      <coding>
        <system value="http://loinc.org"/>
        <code value="8867-4"/>
        <display value="heart_rate"/>
      </coding>
      <text value="heart_rate"/>
    </code>
    <valueQuantity>
      <value value="66.0"/>
      <unit value="{beats}/min"/>
      <system value="http://unitsofmeasure.org" />
      <code value="{beats}/min"/>
    </valueQuantity>
    
    <effectiveDateTime value="2007-03-25"/>
    <status value="final"/>
    <subject>
      <reference value="Patient/1186747"/>
    </subject>
    <encounter>
      <reference value="Encounter/696"/>
    </encounter>
    
  </Observation>
  
  </resource>
  <request>
    <method value="POST"/>
    <url value="Observation/696-heartrate"/>
  </request>
</entry>
<entry>
  <resource>
    
    
  <Observation>
  <id value="696-respiratoryrate"/>
    <text>
      <status value="generated"/>
      <div xmlns="http://www.w3.org/1999/xhtml">2007-03-25: respiratory_rate = 23.0 {breaths}/min</div>
    </text>
    <code>
      <coding>
        <system value="http://loinc.org"/>
        <code value="9279-1"/>
        <display value="respiratory_rate"/>
      </coding>
      <text value="respiratory_rate"/>
    </code>
    <valueQuantity>
      <value value="23.0"/>
      <unit value="{breaths}/min"/>
      <system value="http://unitsofmeasure.org" />
      <code value="{breaths}/min"/>
    </valueQuantity>
    
    <effectiveDateTime value="2007-03-25"/>
    <status value="final"/>
    <subject>
      <reference value="Patient/1186747"/>
    </subject>
    <encounter>
      <reference value="Encounter/696"/>
    </encounter>
    
  </Observation>
  
  </resource>
  <request>
    <method value="POST"/>
    <url value="Observation/696-respiratoryrate"/>
  </request>
</entry>
<entry>
  <resource>
    
    
  <Observation>
  <id value="696-temperature"/>
    <text>
      <status value="generated"/>
      <div xmlns="http://www.w3.org/1999/xhtml">2007-03-25: temperature = 36.55556 Cel</div>
    </text>
    <code>
      <coding>
        <system value="http://loinc.org"/>
        <code value="8310-5"/>
        <display value="temperature"/>
      </coding>
      <text value="temperature"/>
    </code>
    <valueQuantity>
      <value value="36.55556"/>
      <unit value="Cel"/>
      <system value="http://unitsofmeasure.org" />
      <code value="Cel"/>
    </valueQuantity>
    
    <effectiveDateTime value="2007-03-25"/>
    <status value="final"/>
    <subject>
      <reference value="Patient/1186747"/>
    </subject>
    <encounter>
      <reference value="Encounter/696"/>
    </encounter>
    
  </Observation>
  
  </resource>
  <request>
    <method value="POST"/>
    <url value="Observation/696-temperature"/>
  </request>
</entry>
<entry>
  <resource>
    
    
  <Observation>
  <id value="696-weight"/>
    <text>
      <status value="generated"/>
      <div xmlns="http://www.w3.org/1999/xhtml">2007-03-25: weight = 60.78138 kg</div>
    </text>
    <code>
      <coding>
        <system value="http://loinc.org"/>
        <code value="3141-9"/>
        <display value="weight"/>
      </coding>
      <text value="weight"/>
    </code>
    <valueQuantity>
      <value value="60.78138"/>
      <unit value="kg"/>
      <system value="http://unitsofmeasure.org" />
      <code value="kg"/>
    </valueQuantity>
    
    <effectiveDateTime value="2007-03-25"/>
    <status value="final"/>
    <subject>
      <reference value="Patient/1186747"/>
    </subject>
    <encounter>
      <reference value="Encounter/696"/>
    </encounter>
    
  </Observation>
  
  </resource>
  <request>
    <method value="POST"/>
    <url value="Observation/696-weight"/>
  </request>
</entry>
<entry>
  <resource>
    
    
  <Observation>
  <id value="696-bmi"/>
    <text>
      <status value="generated"/>
      <div xmlns="http://www.w3.org/1999/xhtml">2007-03-25: bmi = 21.9 kg/m2</div>
    </text>
    <code>
      <coding>
        <system value="http://loinc.org"/>
        <code value="39156-5"/>
        <display value="bmi"/>
      </coding>
      <text value="bmi"/>
    </code>
    <valueQuantity>
      <value value="21.9"/>
      <unit value="kg/m2"/>
      <system value="http://unitsofmeasure.org" />
      <code value="kg/m2"/>
    </valueQuantity>
    
    <effectiveDateTime value="2007-03-25"/>
    <status value="final"/>
    <subject>
      <reference value="Patient/1186747"/>
    </subject>
    <encounter>
      <reference value="Encounter/696"/>
    </encounter>
    
  </Observation>
  
  </resource>
  <request>
    <method value="POST"/>
    <url value="Observation/696-bmi"/>
  </request>
</entry>
<entry>
  <resource>
    
    
  <Observation>
  <id value="696-oxygensaturation"/>
    <text>
      <status value="generated"/>
      <div xmlns="http://www.w3.org/1999/xhtml">2007-03-25: oxygen_saturation = 100.0 %{HemoglobinSaturation}</div>
    </text>
    <code>
      <coding>
        <system value="http://loinc.org"/>
        <code value="2710-2"/>
        <display value="oxygen_saturation"/>
      </coding>
      <text value="oxygen_saturation"/>
    </code>
    <valueQuantity>
      <value value="100.0"/>
      <unit value="%{HemoglobinSaturation}"/>
      <system value="http://unitsofmeasure.org" />
      <code value="%{HemoglobinSaturation}"/>
    </valueQuantity>
    
    <effectiveDateTime value="2007-03-25"/>
    <status value="final"/>
    <subject>
      <reference value="Patient/1186747"/>
    </subject>
    <encounter>
      <reference value="Encounter/696"/>
    </encounter>
    
  </Observation>
  
  </resource>
  <request>
    <method value="POST"/>
    <url value="Observation/696-oxygensaturation"/>
  </request>
</entry>
<entry>
  <resource>
    
    
  <Observation>
  <id value="697-height"/>
    <text>
      <status value="generated"/>
      <div xmlns="http://www.w3.org/1999/xhtml">2007-08-14: height = 167.132 cm</div>
    </text>
    <code>
      <coding>
        <system value="http://loinc.org"/>
        <code value="8302-2"/>
        <display value="height"/>
      </coding>
      <text value="height"/>
    </code>
    <valueQuantity>
      <value value="167.132"/>
      <unit value="cm"/>
      <system value="http://unitsofmeasure.org" />
      <code value="cm"/>
    </valueQuantity>
    
    <effectiveDateTime value="2007-08-14"/>
    <status value="final"/>
    <subject>
      <reference value="Patient/1186747"/>
    </subject>
    <encounter>
      <reference value="Encounter/697"/>
    </encounter>
    
  </Observation>
  
  </resource>
  <request>
    <method value="POST"/>
    <url value="Observation/697-height"/>
  </request>
</entry>
<entry>
  <resource>
    
    
  <Observation>
  <id value="697-heartrate"/>
    <text>
      <status value="generated"/>
      <div xmlns="http://www.w3.org/1999/xhtml">2007-08-14: heart_rate = 70.0 {beats}/min</div>
    </text>
    <code>
      <coding>
        <system value="http://loinc.org"/>
        <code value="8867-4"/>
        <display value="heart_rate"/>
      </coding>
      <text value="heart_rate"/>
    </code>
    <valueQuantity>
      <value value="70.0"/>
      <unit value="{beats}/min"/>
      <system value="http://unitsofmeasure.org" />
      <code value="{beats}/min"/>
    </valueQuantity>
    
    <effectiveDateTime value="2007-08-14"/>
    <status value="final"/>
    <subject>
      <reference value="Patient/1186747"/>
    </subject>
    <encounter>
      <reference value="Encounter/697"/>
    </encounter>
    
  </Observation>
  
  </resource>
  <request>
    <method value="POST"/>
    <url value="Observation/697-heartrate"/>
  </request>
</entry>
<entry>
  <resource>
    
    
  <Observation>
  <id value="697-respiratoryrate"/>
    <text>
      <status value="generated"/>
      <div xmlns="http://www.w3.org/1999/xhtml">2007-08-14: respiratory_rate = 23.0 {breaths}/min</div>
    </text>
    <code>
      <coding>
        <system value="http://loinc.org"/>
        <code value="9279-1"/>
        <display value="respiratory_rate"/>
      </coding>
      <text value="respiratory_rate"/>
    </code>
    <valueQuantity>
      <value value="23.0"/>
      <unit value="{breaths}/min"/>
      <system value="http://unitsofmeasure.org" />
      <code value="{breaths}/min"/>
    </valueQuantity>
    
    <effectiveDateTime value="2007-08-14"/>
    <status value="final"/>
    <subject>
      <reference value="Patient/1186747"/>
    </subject>
    <encounter>
      <reference value="Encounter/697"/>
    </encounter>
    
  </Observation>
  
  </resource>
  <request>
    <method value="POST"/>
    <url value="Observation/697-respiratoryrate"/>
  </request>
</entry>
<entry>
  <resource>
    
    
  <Observation>
  <id value="697-temperature"/>
    <text>
      <status value="generated"/>
      <div xmlns="http://www.w3.org/1999/xhtml">2007-08-14: temperature = 36.61111 Cel</div>
    </text>
    <code>
      <coding>
        <system value="http://loinc.org"/>
        <code value="8310-5"/>
        <display value="temperature"/>
      </coding>
      <text value="temperature"/>
    </code>
    <valueQuantity>
      <value value="36.61111"/>
      <unit value="Cel"/>
      <system value="http://unitsofmeasure.org" />
      <code value="Cel"/>
    </valueQuantity>
    
    <effectiveDateTime value="2007-08-14"/>
    <status value="final"/>
    <subject>
      <reference value="Patient/1186747"/>
    </subject>
    <encounter>
      <reference value="Encounter/697"/>
    </encounter>
    
  </Observation>
  
  </resource>
  <request>
    <method value="POST"/>
    <url value="Observation/697-temperature"/>
  </request>
</entry>
<entry>
  <resource>
    
    
  <Observation>
  <id value="697-weight"/>
    <text>
      <status value="generated"/>
      <div xmlns="http://www.w3.org/1999/xhtml">2007-08-14: weight = 63.41221 kg</div>
    </text>
    <code>
      <coding>
        <system value="http://loinc.org"/>
        <code value="3141-9"/>
        <display value="weight"/>
      </coding>
      <text value="weight"/>
    </code>
    <valueQuantity>
      <value value="63.41221"/>
      <unit value="kg"/>
      <system value="http://unitsofmeasure.org" />
      <code value="kg"/>
    </valueQuantity>
    
    <effectiveDateTime value="2007-08-14"/>
    <status value="final"/>
    <subject>
      <reference value="Patient/1186747"/>
    </subject>
    <encounter>
      <reference value="Encounter/697"/>
    </encounter>
    
  </Observation>
  
  </resource>
  <request>
    <method value="POST"/>
    <url value="Observation/697-weight"/>
  </request>
</entry>
<entry>
  <resource>
    
    
  <Observation>
  <id value="697-bmi"/>
    <text>
      <status value="generated"/>
      <div xmlns="http://www.w3.org/1999/xhtml">2007-08-14: bmi = 22.7 kg/m2</div>
    </text>
    <code>
      <coding>
        <system value="http://loinc.org"/>
        <code value="39156-5"/>
        <display value="bmi"/>
      </coding>
      <text value="bmi"/>
    </code>
    <valueQuantity>
      <value value="22.7"/>
      <unit value="kg/m2"/>
      <system value="http://unitsofmeasure.org" />
      <code value="kg/m2"/>
    </valueQuantity>
    
    <effectiveDateTime value="2007-08-14"/>
    <status value="final"/>
    <subject>
      <reference value="Patient/1186747"/>
    </subject>
    <encounter>
      <reference value="Encounter/697"/>
    </encounter>
    
  </Observation>
  
  </resource>
  <request>
    <method value="POST"/>
    <url value="Observation/697-bmi"/>
  </request>
</entry>
<entry>
  <resource>
    
    
  <Observation>
  <id value="697-oxygensaturation"/>
    <text>
      <status value="generated"/>
      <div xmlns="http://www.w3.org/1999/xhtml">2007-08-14: oxygen_saturation = 100.0 %{HemoglobinSaturation}</div>
    </text>
    <code>
      <coding>
        <system value="http://loinc.org"/>
        <code value="2710-2"/>
        <display value="oxygen_saturation"/>
      </coding>
      <text value="oxygen_saturation"/>
    </code>
    <valueQuantity>
      <value value="100.0"/>
      <unit value="%{HemoglobinSaturation}"/>
      <system value="http://unitsofmeasure.org" />
      <code value="%{HemoglobinSaturation}"/>
    </valueQuantity>
    
    <effectiveDateTime value="2007-08-14"/>
    <status value="final"/>
    <subject>
      <reference value="Patient/1186747"/>
    </subject>
    <encounter>
      <reference value="Encounter/697"/>
    </encounter>
    
  </Observation>
  
  </resource>
  <request>
    <method value="POST"/>
    <url value="Observation/697-oxygensaturation"/>
  </request>
</entry>
<entry>
  <resource>
    
    
  <Observation>
  <id value="698-height"/>
    <text>
      <status value="generated"/>
      <div xmlns="http://www.w3.org/1999/xhtml">2007-08-15: height = 167.386 cm</div>
    </text>
    <code>
      <coding>
        <system value="http://loinc.org"/>
        <code value="8302-2"/>
        <display value="height"/>
      </coding>
      <text value="height"/>
    </code>
    <valueQuantity>
      <value value="167.386"/>
      <unit value="cm"/>
      <system value="http://unitsofmeasure.org" />
      <code value="cm"/>
    </valueQuantity>
    
    <effectiveDateTime value="2007-08-15"/>
    <status value="final"/>
    <subject>
      <reference value="Patient/1186747"/>
    </subject>
    <encounter>
      <reference value="Encounter/698"/>
    </encounter>
    
  </Observation>
  
  </resource>
  <request>
    <method value="POST"/>
    <url value="Observation/698-height"/>
  </request>
</entry>
<entry>
  <resource>
    
    
  <Observation>
  <id value="698-heartrate"/>
    <text>
      <status value="generated"/>
      <div xmlns="http://www.w3.org/1999/xhtml">2007-08-15: heart_rate = 68.0 {beats}/min</div>
    </text>
    <code>
      <coding>
        <system value="http://loinc.org"/>
        <code value="8867-4"/>
        <display value="heart_rate"/>
      </coding>
      <text value="heart_rate"/>
    </code>
    <valueQuantity>
      <value value="68.0"/>
      <unit value="{beats}/min"/>
      <system value="http://unitsofmeasure.org" />
      <code value="{beats}/min"/>
    </valueQuantity>
    
    <effectiveDateTime value="2007-08-15"/>
    <status value="final"/>
    <subject>
      <reference value="Patient/1186747"/>
    </subject>
    <encounter>
      <reference value="Encounter/698"/>
    </encounter>
    
  </Observation>
  
  </resource>
  <request>
    <method value="POST"/>
    <url value="Observation/698-heartrate"/>
  </request>
</entry>
<entry>
  <resource>
    
    
  <Observation>
  <id value="698-respiratoryrate"/>
    <text>
      <status value="generated"/>
      <div xmlns="http://www.w3.org/1999/xhtml">2007-08-15: respiratory_rate = 23.0 {breaths}/min</div>
    </text>
    <code>
      <coding>
        <system value="http://loinc.org"/>
        <code value="9279-1"/>
        <display value="respiratory_rate"/>
      </coding>
      <text value="respiratory_rate"/>
    </code>
    <valueQuantity>
      <value value="23.0"/>
      <unit value="{breaths}/min"/>
      <system value="http://unitsofmeasure.org" />
      <code value="{breaths}/min"/>
    </valueQuantity>
    
    <effectiveDateTime value="2007-08-15"/>
    <status value="final"/>
    <subject>
      <reference value="Patient/1186747"/>
    </subject>
    <encounter>
      <reference value="Encounter/698"/>
    </encounter>
    
  </Observation>
  
  </resource>
  <request>
    <method value="POST"/>
    <url value="Observation/698-respiratoryrate"/>
  </request>
</entry>
<entry>
  <resource>
    
    
  <Observation>
  <id value="698-temperature"/>
    <text>
      <status value="generated"/>
      <div xmlns="http://www.w3.org/1999/xhtml">2007-08-15: temperature = 36.55556 Cel</div>
    </text>
    <code>
      <coding>
        <system value="http://loinc.org"/>
        <code value="8310-5"/>
        <display value="temperature"/>
      </coding>
      <text value="temperature"/>
    </code>
    <valueQuantity>
      <value value="36.55556"/>
      <unit value="Cel"/>
      <system value="http://unitsofmeasure.org" />
      <code value="Cel"/>
    </valueQuantity>
    
    <effectiveDateTime value="2007-08-15"/>
    <status value="final"/>
    <subject>
      <reference value="Patient/1186747"/>
    </subject>
    <encounter>
      <reference value="Encounter/698"/>
    </encounter>
    
  </Observation>
  
  </resource>
  <request>
    <method value="POST"/>
    <url value="Observation/698-temperature"/>
  </request>
</entry>
<entry>
  <resource>
    
    
  <Observation>
  <id value="698-weight"/>
    <text>
      <status value="generated"/>
      <div xmlns="http://www.w3.org/1999/xhtml">2007-08-15: weight = 63.82045 kg</div>
    </text>
    <code>
      <coding>
        <system value="http://loinc.org"/>
        <code value="3141-9"/>
        <display value="weight"/>
      </coding>
      <text value="weight"/>
    </code>
    <valueQuantity>
      <value value="63.82045"/>
      <unit value="kg"/>
      <system value="http://unitsofmeasure.org" />
      <code value="kg"/>
    </valueQuantity>
    
    <effectiveDateTime value="2007-08-15"/>
    <status value="final"/>
    <subject>
      <reference value="Patient/1186747"/>
    </subject>
    <encounter>
      <reference value="Encounter/698"/>
    </encounter>
    
  </Observation>
  
  </resource>
  <request>
    <method value="POST"/>
    <url value="Observation/698-weight"/>
  </request>
</entry>
<entry>
  <resource>
    
    
  <Observation>
  <id value="698-bmi"/>
    <text>
      <status value="generated"/>
      <div xmlns="http://www.w3.org/1999/xhtml">2007-08-15: bmi = 22.8 kg/m2</div>
    </text>
    <code>
      <coding>
        <system value="http://loinc.org"/>
        <code value="39156-5"/>
        <display value="bmi"/>
      </coding>
      <text value="bmi"/>
    </code>
    <valueQuantity>
      <value value="22.8"/>
      <unit value="kg/m2"/>
      <system value="http://unitsofmeasure.org" />
      <code value="kg/m2"/>
    </valueQuantity>
    
    <effectiveDateTime value="2007-08-15"/>
    <status value="final"/>
    <subject>
      <reference value="Patient/1186747"/>
    </subject>
    <encounter>
      <reference value="Encounter/698"/>
    </encounter>
    
  </Observation>
  
  </resource>
  <request>
    <method value="POST"/>
    <url value="Observation/698-bmi"/>
  </request>
</entry>
<entry>
  <resource>
    
    
  <Observation>
  <id value="698-oxygensaturation"/>
    <text>
      <status value="generated"/>
      <div xmlns="http://www.w3.org/1999/xhtml">2007-08-15: oxygen_saturation = 100.0 %{HemoglobinSaturation}</div>
    </text>
    <code>
      <coding>
        <system value="http://loinc.org"/>
        <code value="2710-2"/>
        <display value="oxygen_saturation"/>
      </coding>
      <text value="oxygen_saturation"/>
    </code>
    <valueQuantity>
      <value value="100.0"/>
      <unit value="%{HemoglobinSaturation}"/>
      <system value="http://unitsofmeasure.org" />
      <code value="%{HemoglobinSaturation}"/>
    </valueQuantity>
    
    <effectiveDateTime value="2007-08-15"/>
    <status value="final"/>
    <subject>
      <reference value="Patient/1186747"/>
    </subject>
    <encounter>
      <reference value="Encounter/698"/>
    </encounter>
    
  </Observation>
  
  </resource>
  <request>
    <method value="POST"/>
    <url value="Observation/698-oxygensaturation"/>
  </request>
</entry>
<entry>
  <resource>
    
    
  <Observation>
  <id value="699-height"/>
    <text>
      <status value="generated"/>
      <div xmlns="http://www.w3.org/1999/xhtml">2007-09-13: height = 166.878 cm</div>
    </text>
    <code>
      <coding>
        <system value="http://loinc.org"/>
        <code value="8302-2"/>
        <display value="height"/>
      </coding>
      <text value="height"/>
    </code>
    <valueQuantity>
      <value value="166.878"/>
      <unit value="cm"/>
      <system value="http://unitsofmeasure.org" />
      <code value="cm"/>
    </valueQuantity>
    
    <effectiveDateTime value="2007-09-13"/>
    <status value="final"/>
    <subject>
      <reference value="Patient/1186747"/>
    </subject>
    <encounter>
      <reference value="Encounter/699"/>
    </encounter>
    
  </Observation>
  
  </resource>
  <request>
    <method value="POST"/>
    <url value="Observation/699-height"/>
  </request>
</entry>
<entry>
  <resource>
    
    
  <Observation>
  <id value="699-heartrate"/>
    <text>
      <status value="generated"/>
      <div xmlns="http://www.w3.org/1999/xhtml">2007-09-13: heart_rate = 67.0 {beats}/min</div>
    </text>
    <code>
      <coding>
        <system value="http://loinc.org"/>
        <code value="8867-4"/>
        <display value="heart_rate"/>
      </coding>
      <text value="heart_rate"/>
    </code>
    <valueQuantity>
      <value value="67.0"/>
      <unit value="{beats}/min"/>
      <system value="http://unitsofmeasure.org" />
      <code value="{beats}/min"/>
    </valueQuantity>
    
    <effectiveDateTime value="2007-09-13"/>
    <status value="final"/>
    <subject>
      <reference value="Patient/1186747"/>
    </subject>
    <encounter>
      <reference value="Encounter/699"/>
    </encounter>
    
  </Observation>
  
  </resource>
  <request>
    <method value="POST"/>
    <url value="Observation/699-heartrate"/>
  </request>
</entry>
<entry>
  <resource>
    
    
  <Observation>
  <id value="699-respiratoryrate"/>
    <text>
      <status value="generated"/>
      <div xmlns="http://www.w3.org/1999/xhtml">2007-09-13: respiratory_rate = 23.0 {breaths}/min</div>
    </text>
    <code>
      <coding>
        <system value="http://loinc.org"/>
        <code value="9279-1"/>
        <display value="respiratory_rate"/>
      </coding>
      <text value="respiratory_rate"/>
    </code>
    <valueQuantity>
      <value value="23.0"/>
      <unit value="{breaths}/min"/>
      <system value="http://unitsofmeasure.org" />
      <code value="{breaths}/min"/>
    </valueQuantity>
    
    <effectiveDateTime value="2007-09-13"/>
    <status value="final"/>
    <subject>
      <reference value="Patient/1186747"/>
    </subject>
    <encounter>
      <reference value="Encounter/699"/>
    </encounter>
    
  </Observation>
  
  </resource>
  <request>
    <method value="POST"/>
    <url value="Observation/699-respiratoryrate"/>
  </request>
</entry>
<entry>
  <resource>
    
    
  <Observation>
  <id value="699-temperature"/>
    <text>
      <status value="generated"/>
      <div xmlns="http://www.w3.org/1999/xhtml">2007-09-13: temperature = 36.61111 Cel</div>
    </text>
    <code>
      <coding>
        <system value="http://loinc.org"/>
        <code value="8310-5"/>
        <display value="temperature"/>
      </coding>
      <text value="temperature"/>
    </code>
    <valueQuantity>
      <value value="36.61111"/>
      <unit value="Cel"/>
      <system value="http://unitsofmeasure.org" />
      <code value="Cel"/>
    </valueQuantity>
    
    <effectiveDateTime value="2007-09-13"/>
    <status value="final"/>
    <subject>
      <reference value="Patient/1186747"/>
    </subject>
    <encounter>
      <reference value="Encounter/699"/>
    </encounter>
    
  </Observation>
  
  </resource>
  <request>
    <method value="POST"/>
    <url value="Observation/699-temperature"/>
  </request>
</entry>
<entry>
  <resource>
    
    
  <Observation>
  <id value="699-weight"/>
    <text>
      <status value="generated"/>
      <div xmlns="http://www.w3.org/1999/xhtml">2007-09-13: weight = 60.37314 kg</div>
    </text>
    <code>
      <coding>
        <system value="http://loinc.org"/>
        <code value="3141-9"/>
        <display value="weight"/>
      </coding>
      <text value="weight"/>
    </code>
    <valueQuantity>
      <value value="60.37314"/>
      <unit value="kg"/>
      <system value="http://unitsofmeasure.org" />
      <code value="kg"/>
    </valueQuantity>
    
    <effectiveDateTime value="2007-09-13"/>
    <status value="final"/>
    <subject>
      <reference value="Patient/1186747"/>
    </subject>
    <encounter>
      <reference value="Encounter/699"/>
    </encounter>
    
  </Observation>
  
  </resource>
  <request>
    <method value="POST"/>
    <url value="Observation/699-weight"/>
  </request>
</entry>
<entry>
  <resource>
    
    
  <Observation>
  <id value="699-bmi"/>
    <text>
      <status value="generated"/>
      <div xmlns="http://www.w3.org/1999/xhtml">2007-09-13: bmi = 21.7 kg/m2</div>
    </text>
    <code>
      <coding>
        <system value="http://loinc.org"/>
        <code value="39156-5"/>
        <display value="bmi"/>
      </coding>
      <text value="bmi"/>
    </code>
    <valueQuantity>
      <value value="21.7"/>
      <unit value="kg/m2"/>
      <system value="http://unitsofmeasure.org" />
      <code value="kg/m2"/>
    </valueQuantity>
    
    <effectiveDateTime value="2007-09-13"/>
    <status value="final"/>
    <subject>
      <reference value="Patient/1186747"/>
    </subject>
    <encounter>
      <reference value="Encounter/699"/>
    </encounter>
    
  </Observation>
  
  </resource>
  <request>
    <method value="POST"/>
    <url value="Observation/699-bmi"/>
  </request>
</entry>
<entry>
  <resource>
    
    
  <Observation>
  <id value="699-oxygensaturation"/>
    <text>
      <status value="generated"/>
      <div xmlns="http://www.w3.org/1999/xhtml">2007-09-13: oxygen_saturation = 100.0 %{HemoglobinSaturation}</div>
    </text>
    <code>
      <coding>
        <system value="http://loinc.org"/>
        <code value="2710-2"/>
        <display value="oxygen_saturation"/>
      </coding>
      <text value="oxygen_saturation"/>
    </code>
    <valueQuantity>
      <value value="100.0"/>
      <unit value="%{HemoglobinSaturation}"/>
      <system value="http://unitsofmeasure.org" />
      <code value="%{HemoglobinSaturation}"/>
    </valueQuantity>
    
    <effectiveDateTime value="2007-09-13"/>
    <status value="final"/>
    <subject>
      <reference value="Patient/1186747"/>
    </subject>
    <encounter>
      <reference value="Encounter/699"/>
    </encounter>
    
  </Observation>
  
  </resource>
  <request>
    <method value="POST"/>
    <url value="Observation/699-oxygensaturation"/>
  </request>
</entry>
<entry>
  <resource>
    
    
  <Observation>
  <id value="700-height"/>
    <text>
      <status value="generated"/>
      <div xmlns="http://www.w3.org/1999/xhtml">2007-09-14: height = 166.624 cm</div>
    </text>
    <code>
      <coding>
        <system value="http://loinc.org"/>
        <code value="8302-2"/>
        <display value="height"/>
      </coding>
      <text value="height"/>
    </code>
    <valueQuantity>
      <value value="166.624"/>
      <unit value="cm"/>
      <system value="http://unitsofmeasure.org" />
      <code value="cm"/>
    </valueQuantity>
    
    <effectiveDateTime value="2007-09-14"/>
    <status value="final"/>
    <subject>
      <reference value="Patient/1186747"/>
    </subject>
    <encounter>
      <reference value="Encounter/700"/>
    </encounter>
    
  </Observation>
  
  </resource>
  <request>
    <method value="POST"/>
    <url value="Observation/700-height"/>
  </request>
</entry>
<entry>
  <resource>
    
    
  <Observation>
  <id value="700-heartrate"/>
    <text>
      <status value="generated"/>
      <div xmlns="http://www.w3.org/1999/xhtml">2007-09-14: heart_rate = 93.0 {beats}/min</div>
    </text>
    <code>
      <coding>
        <system value="http://loinc.org"/>
        <code value="8867-4"/>
        <display value="heart_rate"/>
      </coding>
      <text value="heart_rate"/>
    </code>
    <valueQuantity>
      <value value="93.0"/>
      <unit value="{beats}/min"/>
      <system value="http://unitsofmeasure.org" />
      <code value="{beats}/min"/>
    </valueQuantity>
    
    <effectiveDateTime value="2007-09-14"/>
    <status value="final"/>
    <subject>
      <reference value="Patient/1186747"/>
    </subject>
    <encounter>
      <reference value="Encounter/700"/>
    </encounter>
    
  </Observation>
  
  </resource>
  <request>
    <method value="POST"/>
    <url value="Observation/700-heartrate"/>
  </request>
</entry>
<entry>
  <resource>
    
    
  <Observation>
  <id value="700-respiratoryrate"/>
    <text>
      <status value="generated"/>
      <div xmlns="http://www.w3.org/1999/xhtml">2007-09-14: respiratory_rate = 23.0 {breaths}/min</div>
    </text>
    <code>
      <coding>
        <system value="http://loinc.org"/>
        <code value="9279-1"/>
        <display value="respiratory_rate"/>
      </coding>
      <text value="respiratory_rate"/>
    </code>
    <valueQuantity>
      <value value="23.0"/>
      <unit value="{breaths}/min"/>
      <system value="http://unitsofmeasure.org" />
      <code value="{breaths}/min"/>
    </valueQuantity>
    
    <effectiveDateTime value="2007-09-14"/>
    <status value="final"/>
    <subject>
      <reference value="Patient/1186747"/>
    </subject>
    <encounter>
      <reference value="Encounter/700"/>
    </encounter>
    
  </Observation>
  
  </resource>
  <request>
    <method value="POST"/>
    <url value="Observation/700-respiratoryrate"/>
  </request>
</entry>
<entry>
  <resource>
    
    
  <Observation>
  <id value="700-temperature"/>
    <text>
      <status value="generated"/>
      <div xmlns="http://www.w3.org/1999/xhtml">2007-09-14: temperature = 36.61111 Cel</div>
    </text>
    <code>
      <coding>
        <system value="http://loinc.org"/>
        <code value="8310-5"/>
        <display value="temperature"/>
      </coding>
      <text value="temperature"/>
    </code>
    <valueQuantity>
      <value value="36.61111"/>
      <unit value="Cel"/>
      <system value="http://unitsofmeasure.org" />
      <code value="Cel"/>
    </valueQuantity>
    
    <effectiveDateTime value="2007-09-14"/>
    <status value="final"/>
    <subject>
      <reference value="Patient/1186747"/>
    </subject>
    <encounter>
      <reference value="Encounter/700"/>
    </encounter>
    
  </Observation>
  
  </resource>
  <request>
    <method value="POST"/>
    <url value="Observation/700-temperature"/>
  </request>
</entry>
<entry>
  <resource>
    
    
  <Observation>
  <id value="700-weight"/>
    <text>
      <status value="generated"/>
      <div xmlns="http://www.w3.org/1999/xhtml">2007-09-14: weight = 60.55458 kg</div>
    </text>
    <code>
      <coding>
        <system value="http://loinc.org"/>
        <code value="3141-9"/>
        <display value="weight"/>
      </coding>
      <text value="weight"/>
    </code>
    <valueQuantity>
      <value value="60.55458"/>
      <unit value="kg"/>
      <system value="http://unitsofmeasure.org" />
      <code value="kg"/>
    </valueQuantity>
    
    <effectiveDateTime value="2007-09-14"/>
    <status value="final"/>
    <subject>
      <reference value="Patient/1186747"/>
    </subject>
    <encounter>
      <reference value="Encounter/700"/>
    </encounter>
    
  </Observation>
  
  </resource>
  <request>
    <method value="POST"/>
    <url value="Observation/700-weight"/>
  </request>
</entry>
<entry>
  <resource>
    
    
  <Observation>
  <id value="700-bmi"/>
    <text>
      <status value="generated"/>
      <div xmlns="http://www.w3.org/1999/xhtml">2007-09-14: bmi = 21.8 kg/m2</div>
    </text>
    <code>
      <coding>
        <system value="http://loinc.org"/>
        <code value="39156-5"/>
        <display value="bmi"/>
      </coding>
      <text value="bmi"/>
    </code>
    <valueQuantity>
      <value value="21.8"/>
      <unit value="kg/m2"/>
      <system value="http://unitsofmeasure.org" />
      <code value="kg/m2"/>
    </valueQuantity>
    
    <effectiveDateTime value="2007-09-14"/>
    <status value="final"/>
    <subject>
      <reference value="Patient/1186747"/>
    </subject>
    <encounter>
      <reference value="Encounter/700"/>
    </encounter>
    
  </Observation>
  
  </resource>
  <request>
    <method value="POST"/>
    <url value="Observation/700-bmi"/>
  </request>
</entry>
<entry>
  <resource>
    
    
  <Observation>
  <id value="700-oxygensaturation"/>
    <text>
      <status value="generated"/>
      <div xmlns="http://www.w3.org/1999/xhtml">2007-09-14: oxygen_saturation = 100.0 %{HemoglobinSaturation}</div>
    </text>
    <code>
      <coding>
        <system value="http://loinc.org"/>
        <code value="2710-2"/>
        <display value="oxygen_saturation"/>
      </coding>
      <text value="oxygen_saturation"/>
    </code>
    <valueQuantity>
      <value value="100.0"/>
      <unit value="%{HemoglobinSaturation}"/>
      <system value="http://unitsofmeasure.org" />
      <code value="%{HemoglobinSaturation}"/>
    </valueQuantity>
    
    <effectiveDateTime value="2007-09-14"/>
    <status value="final"/>
    <subject>
      <reference value="Patient/1186747"/>
    </subject>
    <encounter>
      <reference value="Encounter/700"/>
    </encounter>
    
  </Observation>
  
  </resource>
  <request>
    <method value="POST"/>
    <url value="Observation/700-oxygensaturation"/>
  </request>
</entry>
<entry>
  <resource>
    
    
  <Observation>
  <id value="701-height"/>
    <text>
      <status value="generated"/>
      <div xmlns="http://www.w3.org/1999/xhtml">2007-09-24: height = 166.116 cm</div>
    </text>
    <code>
      <coding>
        <system value="http://loinc.org"/>
        <code value="8302-2"/>
        <display value="height"/>
      </coding>
      <text value="height"/>
    </code>
    <valueQuantity>
      <value value="166.116"/>
      <unit value="cm"/>
      <system value="http://unitsofmeasure.org" />
      <code value="cm"/>
    </valueQuantity>
    
    <effectiveDateTime value="2007-09-24"/>
    <status value="final"/>
    <subject>
      <reference value="Patient/1186747"/>
    </subject>
    <encounter>
      <reference value="Encounter/701"/>
    </encounter>
    
  </Observation>
  
  </resource>
  <request>
    <method value="POST"/>
    <url value="Observation/701-height"/>
  </request>
</entry>
<entry>
  <resource>
    
    
  <Observation>
  <id value="701-heartrate"/>
    <text>
      <status value="generated"/>
      <div xmlns="http://www.w3.org/1999/xhtml">2007-09-24: heart_rate = 94.0 {beats}/min</div>
    </text>
    <code>
      <coding>
        <system value="http://loinc.org"/>
        <code value="8867-4"/>
        <display value="heart_rate"/>
      </coding>
      <text value="heart_rate"/>
    </code>
    <valueQuantity>
      <value value="94.0"/>
      <unit value="{beats}/min"/>
      <system value="http://unitsofmeasure.org" />
      <code value="{beats}/min"/>
    </valueQuantity>
    
    <effectiveDateTime value="2007-09-24"/>
    <status value="final"/>
    <subject>
      <reference value="Patient/1186747"/>
    </subject>
    <encounter>
      <reference value="Encounter/701"/>
    </encounter>
    
  </Observation>
  
  </resource>
  <request>
    <method value="POST"/>
    <url value="Observation/701-heartrate"/>
  </request>
</entry>
<entry>
  <resource>
    
    
  <Observation>
  <id value="701-respiratoryrate"/>
    <text>
      <status value="generated"/>
      <div xmlns="http://www.w3.org/1999/xhtml">2007-09-24: respiratory_rate = 23.0 {breaths}/min</div>
    </text>
    <code>
      <coding>
        <system value="http://loinc.org"/>
        <code value="9279-1"/>
        <display value="respiratory_rate"/>
      </coding>
      <text value="respiratory_rate"/>
    </code>
    <valueQuantity>
      <value value="23.0"/>
      <unit value="{breaths}/min"/>
      <system value="http://unitsofmeasure.org" />
      <code value="{breaths}/min"/>
    </valueQuantity>
    
    <effectiveDateTime value="2007-09-24"/>
    <status value="final"/>
    <subject>
      <reference value="Patient/1186747"/>
    </subject>
    <encounter>
      <reference value="Encounter/701"/>
    </encounter>
    
  </Observation>
  
  </resource>
  <request>
    <method value="POST"/>
    <url value="Observation/701-respiratoryrate"/>
  </request>
</entry>
<entry>
  <resource>
    
    
  <Observation>
  <id value="701-temperature"/>
    <text>
      <status value="generated"/>
      <div xmlns="http://www.w3.org/1999/xhtml">2007-09-24: temperature = 36.55556 Cel</div>
    </text>
    <code>
      <coding>
        <system value="http://loinc.org"/>
        <code value="8310-5"/>
        <display value="temperature"/>
      </coding>
      <text value="temperature"/>
    </code>
    <valueQuantity>
      <value value="36.55556"/>
      <unit value="Cel"/>
      <system value="http://unitsofmeasure.org" />
      <code value="Cel"/>
    </valueQuantity>
    
    <effectiveDateTime value="2007-09-24"/>
    <status value="final"/>
    <subject>
      <reference value="Patient/1186747"/>
    </subject>
    <encounter>
      <reference value="Encounter/701"/>
    </encounter>
    
  </Observation>
  
  </resource>
  <request>
    <method value="POST"/>
    <url value="Observation/701-temperature"/>
  </request>
</entry>
<entry>
  <resource>
    
    
  <Observation>
  <id value="701-weight"/>
    <text>
      <status value="generated"/>
      <div xmlns="http://www.w3.org/1999/xhtml">2007-09-24: weight = 59.37524 kg</div>
    </text>
    <code>
      <coding>
        <system value="http://loinc.org"/>
        <code value="3141-9"/>
        <display value="weight"/>
      </coding>
      <text value="weight"/>
    </code>
    <valueQuantity>
      <value value="59.37524"/>
      <unit value="kg"/>
      <system value="http://unitsofmeasure.org" />
      <code value="kg"/>
    </valueQuantity>
    
    <effectiveDateTime value="2007-09-24"/>
    <status value="final"/>
    <subject>
      <reference value="Patient/1186747"/>
    </subject>
    <encounter>
      <reference value="Encounter/701"/>
    </encounter>
    
  </Observation>
  
  </resource>
  <request>
    <method value="POST"/>
    <url value="Observation/701-weight"/>
  </request>
</entry>
<entry>
  <resource>
    
    
  <Observation>
  <id value="701-bmi"/>
    <text>
      <status value="generated"/>
      <div xmlns="http://www.w3.org/1999/xhtml">2007-09-24: bmi = 21.5 kg/m2</div>
    </text>
    <code>
      <coding>
        <system value="http://loinc.org"/>
        <code value="39156-5"/>
        <display value="bmi"/>
      </coding>
      <text value="bmi"/>
    </code>
    <valueQuantity>
      <value value="21.5"/>
      <unit value="kg/m2"/>
      <system value="http://unitsofmeasure.org" />
      <code value="kg/m2"/>
    </valueQuantity>
    
    <effectiveDateTime value="2007-09-24"/>
    <status value="final"/>
    <subject>
      <reference value="Patient/1186747"/>
    </subject>
    <encounter>
      <reference value="Encounter/701"/>
    </encounter>
    
  </Observation>
  
  </resource>
  <request>
    <method value="POST"/>
    <url value="Observation/701-bmi"/>
  </request>
</entry>
<entry>
  <resource>
    
    
  <Observation>
  <id value="701-oxygensaturation"/>
    <text>
      <status value="generated"/>
      <div xmlns="http://www.w3.org/1999/xhtml">2007-09-24: oxygen_saturation = 100.0 %{HemoglobinSaturation}</div>
    </text>
    <code>
      <coding>
        <system value="http://loinc.org"/>
        <code value="2710-2"/>
        <display value="oxygen_saturation"/>
      </coding>
      <text value="oxygen_saturation"/>
    </code>
    <valueQuantity>
      <value value="100.0"/>
      <unit value="%{HemoglobinSaturation}"/>
      <system value="http://unitsofmeasure.org" />
      <code value="%{HemoglobinSaturation}"/>
    </valueQuantity>
    
    <effectiveDateTime value="2007-09-24"/>
    <status value="final"/>
    <subject>
      <reference value="Patient/1186747"/>
    </subject>
    <encounter>
      <reference value="Encounter/701"/>
    </encounter>
    
  </Observation>
  
  </resource>
  <request>
    <method value="POST"/>
    <url value="Observation/701-oxygensaturation"/>
  </request>
</entry>
<entry>
  <resource>
    
    
  <Observation>
  <id value="702-height"/>
    <text>
      <status value="generated"/>
      <div xmlns="http://www.w3.org/1999/xhtml">2007-09-27: height = 167.386 cm</div>
    </text>
    <code>
      <coding>
        <system value="http://loinc.org"/>
        <code value="8302-2"/>
        <display value="height"/>
      </coding>
      <text value="height"/>
    </code>
    <valueQuantity>
      <value value="167.386"/>
      <unit value="cm"/>
      <system value="http://unitsofmeasure.org" />
      <code value="cm"/>
    </valueQuantity>
    
    <effectiveDateTime value="2007-09-27"/>
    <status value="final"/>
    <subject>
      <reference value="Patient/1186747"/>
    </subject>
    <encounter>
      <reference value="Encounter/702"/>
    </encounter>
    
  </Observation>
  
  </resource>
  <request>
    <method value="POST"/>
    <url value="Observation/702-height"/>
  </request>
</entry>
<entry>
  <resource>
    
    
  <Observation>
  <id value="702-heartrate"/>
    <text>
      <status value="generated"/>
      <div xmlns="http://www.w3.org/1999/xhtml">2007-09-27: heart_rate = 67.0 {beats}/min</div>
    </text>
    <code>
      <coding>
        <system value="http://loinc.org"/>
        <code value="8867-4"/>
        <display value="heart_rate"/>
      </coding>
      <text value="heart_rate"/>
    </code>
    <valueQuantity>
      <value value="67.0"/>
      <unit value="{beats}/min"/>
      <system value="http://unitsofmeasure.org" />
      <code value="{beats}/min"/>
    </valueQuantity>
    
    <effectiveDateTime value="2007-09-27"/>
    <status value="final"/>
    <subject>
      <reference value="Patient/1186747"/>
    </subject>
    <encounter>
      <reference value="Encounter/702"/>
    </encounter>
    
  </Observation>
  
  </resource>
  <request>
    <method value="POST"/>
    <url value="Observation/702-heartrate"/>
  </request>
</entry>
<entry>
  <resource>
    
    
  <Observation>
  <id value="702-respiratoryrate"/>
    <text>
      <status value="generated"/>
      <div xmlns="http://www.w3.org/1999/xhtml">2007-09-27: respiratory_rate = 23.0 {breaths}/min</div>
    </text>
    <code>
      <coding>
        <system value="http://loinc.org"/>
        <code value="9279-1"/>
        <display value="respiratory_rate"/>
      </coding>
      <text value="respiratory_rate"/>
    </code>
    <valueQuantity>
      <value value="23.0"/>
      <unit value="{breaths}/min"/>
      <system value="http://unitsofmeasure.org" />
      <code value="{breaths}/min"/>
    </valueQuantity>
    
    <effectiveDateTime value="2007-09-27"/>
    <status value="final"/>
    <subject>
      <reference value="Patient/1186747"/>
    </subject>
    <encounter>
      <reference value="Encounter/702"/>
    </encounter>
    
  </Observation>
  
  </resource>
  <request>
    <method value="POST"/>
    <url value="Observation/702-respiratoryrate"/>
  </request>
</entry>
<entry>
  <resource>
    
    
  <Observation>
  <id value="702-temperature"/>
    <text>
      <status value="generated"/>
      <div xmlns="http://www.w3.org/1999/xhtml">2007-09-27: temperature = 36.55556 Cel</div>
    </text>
    <code>
      <coding>
        <system value="http://loinc.org"/>
        <code value="8310-5"/>
        <display value="temperature"/>
      </coding>
      <text value="temperature"/>
    </code>
    <valueQuantity>
      <value value="36.55556"/>
      <unit value="Cel"/>
      <system value="http://unitsofmeasure.org" />
      <code value="Cel"/>
    </valueQuantity>
    
    <effectiveDateTime value="2007-09-27"/>
    <status value="final"/>
    <subject>
      <reference value="Patient/1186747"/>
    </subject>
    <encounter>
      <reference value="Encounter/702"/>
    </encounter>
    
  </Observation>
  
  </resource>
  <request>
    <method value="POST"/>
    <url value="Observation/702-temperature"/>
  </request>
</entry>
<entry>
  <resource>
    
    
  <Observation>
  <id value="702-weight"/>
    <text>
      <status value="generated"/>
      <div xmlns="http://www.w3.org/1999/xhtml">2007-09-27: weight = 63.68437 kg</div>
    </text>
    <code>
      <coding>
        <system value="http://loinc.org"/>
        <code value="3141-9"/>
        <display value="weight"/>
      </coding>
      <text value="weight"/>
    </code>
    <valueQuantity>
      <value value="63.68437"/>
      <unit value="kg"/>
      <system value="http://unitsofmeasure.org" />
      <code value="kg"/>
    </valueQuantity>
    
    <effectiveDateTime value="2007-09-27"/>
    <status value="final"/>
    <subject>
      <reference value="Patient/1186747"/>
    </subject>
    <encounter>
      <reference value="Encounter/702"/>
    </encounter>
    
  </Observation>
  
  </resource>
  <request>
    <method value="POST"/>
    <url value="Observation/702-weight"/>
  </request>
</entry>
<entry>
  <resource>
    
    
  <Observation>
  <id value="702-bmi"/>
    <text>
      <status value="generated"/>
      <div xmlns="http://www.w3.org/1999/xhtml">2007-09-27: bmi = 22.7 kg/m2</div>
    </text>
    <code>
      <coding>
        <system value="http://loinc.org"/>
        <code value="39156-5"/>
        <display value="bmi"/>
      </coding>
      <text value="bmi"/>
    </code>
    <valueQuantity>
      <value value="22.7"/>
      <unit value="kg/m2"/>
      <system value="http://unitsofmeasure.org" />
      <code value="kg/m2"/>
    </valueQuantity>
    
    <effectiveDateTime value="2007-09-27"/>
    <status value="final"/>
    <subject>
      <reference value="Patient/1186747"/>
    </subject>
    <encounter>
      <reference value="Encounter/702"/>
    </encounter>
    
  </Observation>
  
  </resource>
  <request>
    <method value="POST"/>
    <url value="Observation/702-bmi"/>
  </request>
</entry>
<entry>
  <resource>
    
    
  <Observation>
  <id value="702-oxygensaturation"/>
    <text>
      <status value="generated"/>
      <div xmlns="http://www.w3.org/1999/xhtml">2007-09-27: oxygen_saturation = 100.0 %{HemoglobinSaturation}</div>
    </text>
    <code>
      <coding>
        <system value="http://loinc.org"/>
        <code value="2710-2"/>
        <display value="oxygen_saturation"/>
      </coding>
      <text value="oxygen_saturation"/>
    </code>
    <valueQuantity>
      <value value="100.0"/>
      <unit value="%{HemoglobinSaturation}"/>
      <system value="http://unitsofmeasure.org" />
      <code value="%{HemoglobinSaturation}"/>
    </valueQuantity>
    
    <effectiveDateTime value="2007-09-27"/>
    <status value="final"/>
    <subject>
      <reference value="Patient/1186747"/>
    </subject>
    <encounter>
      <reference value="Encounter/702"/>
    </encounter>
    
  </Observation>
  
  </resource>
  <request>
    <method value="POST"/>
    <url value="Observation/702-oxygensaturation"/>
  </request>
</entry>
<entry>
  <resource>
    
    
  <Observation>
  <id value="703-height"/>
    <text>
      <status value="generated"/>
      <div xmlns="http://www.w3.org/1999/xhtml">2008-12-30: height = 172.72 cm</div>
    </text>
    <code>
      <coding>
        <system value="http://loinc.org"/>
        <code value="8302-2"/>
        <display value="height"/>
      </coding>
      <text value="height"/>
    </code>
    <valueQuantity>
      <value value="172.72"/>
      <unit value="cm"/>
      <system value="http://unitsofmeasure.org" />
      <code value="cm"/>
    </valueQuantity>
    
    <effectiveDateTime value="2008-12-30"/>
    <status value="final"/>
    <subject>
      <reference value="Patient/1186747"/>
    </subject>
    <encounter>
      <reference value="Encounter/703"/>
    </encounter>
    
  </Observation>
  
  </resource>
  <request>
    <method value="POST"/>
    <url value="Observation/703-height"/>
  </request>
</entry>
<entry>
  <resource>
    
    
  <Observation>
  <id value="703-heartrate"/>
    <text>
      <status value="generated"/>
      <div xmlns="http://www.w3.org/1999/xhtml">2008-12-30: heart_rate = 95.0 {beats}/min</div>
    </text>
    <code>
      <coding>
        <system value="http://loinc.org"/>
        <code value="8867-4"/>
        <display value="heart_rate"/>
      </coding>
      <text value="heart_rate"/>
    </code>
    <valueQuantity>
      <value value="95.0"/>
      <unit value="{beats}/min"/>
      <system value="http://unitsofmeasure.org" />
      <code value="{beats}/min"/>
    </valueQuantity>
    
    <effectiveDateTime value="2008-12-30"/>
    <status value="final"/>
    <subject>
      <reference value="Patient/1186747"/>
    </subject>
    <encounter>
      <reference value="Encounter/703"/>
    </encounter>
    
  </Observation>
  
  </resource>
  <request>
    <method value="POST"/>
    <url value="Observation/703-heartrate"/>
  </request>
</entry>
<entry>
  <resource>
    
    
  <Observation>
  <id value="703-respiratoryrate"/>
    <text>
      <status value="generated"/>
      <div xmlns="http://www.w3.org/1999/xhtml">2008-12-30: respiratory_rate = 37.0 {breaths}/min</div>
    </text>
    <code>
      <coding>
        <system value="http://loinc.org"/>
        <code value="9279-1"/>
        <display value="respiratory_rate"/>
      </coding>
      <text value="respiratory_rate"/>
    </code>
    <valueQuantity>
      <value value="37.0"/>
      <unit value="{breaths}/min"/>
      <system value="http://unitsofmeasure.org" />
      <code value="{breaths}/min"/>
    </valueQuantity>
    
    <effectiveDateTime value="2008-12-30"/>
    <status value="final"/>
    <subject>
      <reference value="Patient/1186747"/>
    </subject>
    <encounter>
      <reference value="Encounter/703"/>
    </encounter>
    
  </Observation>
  
  </resource>
  <request>
    <method value="POST"/>
    <url value="Observation/703-respiratoryrate"/>
  </request>
</entry>
<entry>
  <resource>
    
    
  <Observation>
  <id value="703-temperature"/>
    <text>
      <status value="generated"/>
      <div xmlns="http://www.w3.org/1999/xhtml">2008-12-30: temperature = 36.5 Cel</div>
    </text>
    <code>
      <coding>
        <system value="http://loinc.org"/>
        <code value="8310-5"/>
        <display value="temperature"/>
      </coding>
      <text value="temperature"/>
    </code>
    <valueQuantity>
      <value value="36.5"/>
      <unit value="Cel"/>
      <system value="http://unitsofmeasure.org" />
      <code value="Cel"/>
    </valueQuantity>
    
    <effectiveDateTime value="2008-12-30"/>
    <status value="final"/>
    <subject>
      <reference value="Patient/1186747"/>
    </subject>
    <encounter>
      <reference value="Encounter/703"/>
    </encounter>
    
  </Observation>
  
  </resource>
  <request>
    <method value="POST"/>
    <url value="Observation/703-temperature"/>
  </request>
</entry>
<entry>
  <resource>
    
    
  <Observation>
  <id value="703-weight"/>
    <text>
      <status value="generated"/>
      <div xmlns="http://www.w3.org/1999/xhtml">2008-12-30: weight = 70.89649 kg</div>
    </text>
    <code>
      <coding>
        <system value="http://loinc.org"/>
        <code value="3141-9"/>
        <display value="weight"/>
      </coding>
      <text value="weight"/>
    </code>
    <valueQuantity>
      <value value="70.89649"/>
      <unit value="kg"/>
      <system value="http://unitsofmeasure.org" />
      <code value="kg"/>
    </valueQuantity>
    
    <effectiveDateTime value="2008-12-30"/>
    <status value="final"/>
    <subject>
      <reference value="Patient/1186747"/>
    </subject>
    <encounter>
      <reference value="Encounter/703"/>
    </encounter>
    
  </Observation>
  
  </resource>
  <request>
    <method value="POST"/>
    <url value="Observation/703-weight"/>
  </request>
</entry>
<entry>
  <resource>
    
    
  <Observation>
  <id value="703-bmi"/>
    <text>
      <status value="generated"/>
      <div xmlns="http://www.w3.org/1999/xhtml">2008-12-30: bmi = 23.8 kg/m2</div>
    </text>
    <code>
      <coding>
        <system value="http://loinc.org"/>
        <code value="39156-5"/>
        <display value="bmi"/>
      </coding>
      <text value="bmi"/>
    </code>
    <valueQuantity>
      <value value="23.8"/>
      <unit value="kg/m2"/>
      <system value="http://unitsofmeasure.org" />
      <code value="kg/m2"/>
    </valueQuantity>
    
    <effectiveDateTime value="2008-12-30"/>
    <status value="final"/>
    <subject>
      <reference value="Patient/1186747"/>
    </subject>
    <encounter>
      <reference value="Encounter/703"/>
    </encounter>
    
  </Observation>
  
  </resource>
  <request>
    <method value="POST"/>
    <url value="Observation/703-bmi"/>
  </request>
</entry>
<entry>
  <resource>
    
    
  <Observation>
  <id value="703-oxygensaturation"/>
    <text>
      <status value="generated"/>
      <div xmlns="http://www.w3.org/1999/xhtml">2008-12-30: oxygen_saturation = 99.0 %{HemoglobinSaturation}</div>
    </text>
    <code>
      <coding>
        <system value="http://loinc.org"/>
        <code value="2710-2"/>
        <display value="oxygen_saturation"/>
      </coding>
      <text value="oxygen_saturation"/>
    </code>
    <valueQuantity>
      <value value="99.0"/>
      <unit value="%{HemoglobinSaturation}"/>
      <system value="http://unitsofmeasure.org" />
      <code value="%{HemoglobinSaturation}"/>
    </valueQuantity>
    
    <effectiveDateTime value="2008-12-30"/>
    <status value="final"/>
    <subject>
      <reference value="Patient/1186747"/>
    </subject>
    <encounter>
      <reference value="Encounter/703"/>
    </encounter>
    
  </Observation>
  
  </resource>
  <request>
    <method value="POST"/>
    <url value="Observation/703-oxygensaturation"/>
  </request>
</entry>
<entry>
  <resource>
    
    
  <Observation>
  <id value="704-height"/>
    <text>
      <status value="generated"/>
      <div xmlns="http://www.w3.org/1999/xhtml">2009-01-05: height = 178.054 cm</div>
    </text>
    <code>
      <coding>
        <system value="http://loinc.org"/>
        <code value="8302-2"/>
        <display value="height"/>
      </coding>
      <text value="height"/>
    </code>
    <valueQuantity>
      <value value="178.054"/>
      <unit value="cm"/>
      <system value="http://unitsofmeasure.org" />
      <code value="cm"/>
    </valueQuantity>
    
    <effectiveDateTime value="2009-01-05"/>
    <status value="final"/>
    <subject>
      <reference value="Patient/1186747"/>
    </subject>
    <encounter>
      <reference value="Encounter/704"/>
    </encounter>
    
  </Observation>
  
  </resource>
  <request>
    <method value="POST"/>
    <url value="Observation/704-height"/>
  </request>
</entry>
<entry>
  <resource>
    
    
  <Observation>
  <id value="704-heartrate"/>
    <text>
      <status value="generated"/>
      <div xmlns="http://www.w3.org/1999/xhtml">2009-01-05: heart_rate = 73.0 {beats}/min</div>
    </text>
    <code>
      <coding>
        <system value="http://loinc.org"/>
        <code value="8867-4"/>
        <display value="heart_rate"/>
      </coding>
      <text value="heart_rate"/>
    </code>
    <valueQuantity>
      <value value="73.0"/>
      <unit value="{beats}/min"/>
      <system value="http://unitsofmeasure.org" />
      <code value="{beats}/min"/>
    </valueQuantity>
    
    <effectiveDateTime value="2009-01-05"/>
    <status value="final"/>
    <subject>
      <reference value="Patient/1186747"/>
    </subject>
    <encounter>
      <reference value="Encounter/704"/>
    </encounter>
    
  </Observation>
  
  </resource>
  <request>
    <method value="POST"/>
    <url value="Observation/704-heartrate"/>
  </request>
</entry>
<entry>
  <resource>
    
    
  <Observation>
  <id value="704-respiratoryrate"/>
    <text>
      <status value="generated"/>
      <div xmlns="http://www.w3.org/1999/xhtml">2009-01-05: respiratory_rate = 23.0 {breaths}/min</div>
    </text>
    <code>
      <coding>
        <system value="http://loinc.org"/>
        <code value="9279-1"/>
        <display value="respiratory_rate"/>
      </coding>
      <text value="respiratory_rate"/>
    </code>
    <valueQuantity>
      <value value="23.0"/>
      <unit value="{breaths}/min"/>
      <system value="http://unitsofmeasure.org" />
      <code value="{breaths}/min"/>
    </valueQuantity>
    
    <effectiveDateTime value="2009-01-05"/>
    <status value="final"/>
    <subject>
      <reference value="Patient/1186747"/>
    </subject>
    <encounter>
      <reference value="Encounter/704"/>
    </encounter>
    
  </Observation>
  
  </resource>
  <request>
    <method value="POST"/>
    <url value="Observation/704-respiratoryrate"/>
  </request>
</entry>
<entry>
  <resource>
    
    
  <Observation>
  <id value="704-temperature"/>
    <text>
      <status value="generated"/>
      <div xmlns="http://www.w3.org/1999/xhtml">2009-01-05: temperature = 36.55556 Cel</div>
    </text>
    <code>
      <coding>
        <system value="http://loinc.org"/>
        <code value="8310-5"/>
        <display value="temperature"/>
      </coding>
      <text value="temperature"/>
    </code>
    <valueQuantity>
      <value value="36.55556"/>
      <unit value="Cel"/>
      <system value="http://unitsofmeasure.org" />
      <code value="Cel"/>
    </valueQuantity>
    
    <effectiveDateTime value="2009-01-05"/>
    <status value="final"/>
    <subject>
      <reference value="Patient/1186747"/>
    </subject>
    <encounter>
      <reference value="Encounter/704"/>
    </encounter>
    
  </Observation>
  
  </resource>
  <request>
    <method value="POST"/>
    <url value="Observation/704-temperature"/>
  </request>
</entry>
<entry>
  <resource>
    
    
  <Observation>
  <id value="704-weight"/>
    <text>
      <status value="generated"/>
      <div xmlns="http://www.w3.org/1999/xhtml">2009-01-05: weight = 83.461 kg</div>
    </text>
    <code>
      <coding>
        <system value="http://loinc.org"/>
        <code value="3141-9"/>
        <display value="weight"/>
      </coding>
      <text value="weight"/>
    </code>
    <valueQuantity>
      <value value="83.461"/>
      <unit value="kg"/>
      <system value="http://unitsofmeasure.org" />
      <code value="kg"/>
    </valueQuantity>
    
    <effectiveDateTime value="2009-01-05"/>
    <status value="final"/>
    <subject>
      <reference value="Patient/1186747"/>
    </subject>
    <encounter>
      <reference value="Encounter/704"/>
    </encounter>
    
  </Observation>
  
  </resource>
  <request>
    <method value="POST"/>
    <url value="Observation/704-weight"/>
  </request>
</entry>
<entry>
  <resource>
    
    
  <Observation>
  <id value="704-bmi"/>
    <text>
      <status value="generated"/>
      <div xmlns="http://www.w3.org/1999/xhtml">2009-01-05: bmi = 26.3 kg/m2</div>
    </text>
    <code>
      <coding>
        <system value="http://loinc.org"/>
        <code value="39156-5"/>
        <display value="bmi"/>
      </coding>
      <text value="bmi"/>
    </code>
    <valueQuantity>
      <value value="26.3"/>
      <unit value="kg/m2"/>
      <system value="http://unitsofmeasure.org" />
      <code value="kg/m2"/>
    </valueQuantity>
    
    <effectiveDateTime value="2009-01-05"/>
    <status value="final"/>
    <subject>
      <reference value="Patient/1186747"/>
    </subject>
    <encounter>
      <reference value="Encounter/704"/>
    </encounter>
    
  </Observation>
  
  </resource>
  <request>
    <method value="POST"/>
    <url value="Observation/704-bmi"/>
  </request>
</entry>
<entry>
  <resource>
    
    
  <Observation>
  <id value="704-oxygensaturation"/>
    <text>
      <status value="generated"/>
      <div xmlns="http://www.w3.org/1999/xhtml">2009-01-05: oxygen_saturation = 99.0 %{HemoglobinSaturation}</div>
    </text>
    <code>
      <coding>
        <system value="http://loinc.org"/>
        <code value="2710-2"/>
        <display value="oxygen_saturation"/>
      </coding>
      <text value="oxygen_saturation"/>
    </code>
    <valueQuantity>
      <value value="99.0"/>
      <unit value="%{HemoglobinSaturation}"/>
      <system value="http://unitsofmeasure.org" />
      <code value="%{HemoglobinSaturation}"/>
    </valueQuantity>
    
    <effectiveDateTime value="2009-01-05"/>
    <status value="final"/>
    <subject>
      <reference value="Patient/1186747"/>
    </subject>
    <encounter>
      <reference value="Encounter/704"/>
    </encounter>
    
  </Observation>
  
  </resource>
  <request>
    <method value="POST"/>
    <url value="Observation/704-oxygensaturation"/>
  </request>
</entry>
<entry>
  <resource>
    
    
<MedicationOrder>
  <id value="132"/>
  <text>
    <status value="generated"/>
    <div xmlns="http://www.w3.org/1999/xhtml">
      200 ACTUAT Albuterol 0.09 MG/ACTUAT Metered Dose Inhaler (rxnorm: 745679)
    </div>
  </text>

  <status value="active" />
  <patient>
    <reference value="Patient/1186747"/>
  </patient>

  <medicationCodeableConcept>
    <coding>
        <system value="http://www.nlm.nih.gov/research/umls/rxnorm"/>
        <code value="745679"/>
        <display value="200 ACTUAT Albuterol 0.09 MG/ACTUAT Metered Dose Inhaler"/>
    </coding>
    <text value="200 ACTUAT Albuterol 0.09 MG/ACTUAT Metered Dose Inhaler"/>
  </medicationCodeableConcept>

  <dosageInstruction>
    <timing>
      <repeat>
        <boundsPeriod>
          <start value="2004-11-14"/>
        </boundsPeriod>
        <frequency value="4"/>
        <period value="1"/>
        <periodUnits value="d"/>
      </repeat>
      
    </timing>
    <doseQuantity>
      <value value="2"/>
      <unit value="{puff}"/>
      <system value="http://unitsofmeasure.org"/>
      <code value="{puff}"/>
    </doseQuantity>
    
    <asNeededBoolean value="true"/>
    
    <text value="2 puffs qid prn SOB"/>
  </dosageInstruction>
  <dispenseRequest>
     <numberOfRepeatsAllowed value="1"/>
     
     <quantity>
        <value value="1"/>
        <unit value="{puff}"/>
        <system value="http://unitsofmeasure.org"/>
        <code value="{puff}"/>
     </quantity>
     
     <expectedSupplyDuration>
        <value value="25"/>
        <unit value="days"/>
        <system value="http://unitsofmeasure.org"/>
        <code value="d"/>
     </expectedSupplyDuration>
     
  </dispenseRequest>
  
</MedicationOrder>

  </resource>
  <request>
    <method value="POST"/>
    <url value="MedicationOrder/132"/>
  </request>
</entry>
<entry>
  <resource>
    
    
<MedicationOrder>
  <id value="133"/>
  <text>
    <status value="generated"/>
    <div xmlns="http://www.w3.org/1999/xhtml">
      moxifloxacin 5 MG/ML Ophthalmic Solution [Vigamox] (rxnorm: 404473)
    </div>
  </text>

  <status value="active" />
  <patient>
    <reference value="Patient/1186747"/>
  </patient>

  <medicationCodeableConcept>
    <coding>
        <system value="http://www.nlm.nih.gov/research/umls/rxnorm"/>
        <code value="404473"/>
        <display value="moxifloxacin 5 MG/ML Ophthalmic Solution [Vigamox]"/>
    </coding>
    <text value="moxifloxacin 5 MG/ML Ophthalmic Solution [Vigamox]"/>
  </medicationCodeableConcept>

  <dosageInstruction>
    <timing>
      <repeat>
        <boundsPeriod>
          <start value="2005-07-20"/>
        </boundsPeriod>
        <frequency value="3"/>
        <period value="1"/>
        <periodUnits value="d"/>
      </repeat>
      
    </timing>
    <doseQuantity>
      <value value="1"/>
      <unit value="[drp]"/>
      <system value="http://unitsofmeasure.org"/>
      <code value="[drp]"/>
    </doseQuantity>
    
    <text value="1 gtt in eyes tid x7 days"/>
  </dosageInstruction>
  <dispenseRequest>
     <numberOfRepeatsAllowed value="1"/>
     
     <quantity>
        <value value="1"/>
        <unit value="[drp]"/>
        <system value="http://unitsofmeasure.org"/>
        <code value="[drp]"/>
     </quantity>
     
     <expectedSupplyDuration>
        <value value="7"/>
        <unit value="days"/>
        <system value="http://unitsofmeasure.org"/>
        <code value="d"/>
     </expectedSupplyDuration>
     
  </dispenseRequest>
  
</MedicationOrder>

  </resource>
  <request>
    <method value="POST"/>
    <url value="MedicationOrder/133"/>
  </request>
</entry>
<entry>
  <resource>
    
    
<MedicationOrder>
  <id value="134"/>
  <text>
    <status value="generated"/>
    <div xmlns="http://www.w3.org/1999/xhtml">
      24 HR Methylphenidate 18 MG Extended Release Tablet [Concerta] (rxnorm: 284429)
    </div>
  </text>

  <status value="active" />
  <patient>
    <reference value="Patient/1186747"/>
  </patient>

  <medicationCodeableConcept>
    <coding>
        <system value="http://www.nlm.nih.gov/research/umls/rxnorm"/>
        <code value="284429"/>
        <display value="24 HR Methylphenidate 18 MG Extended Release Tablet [Concerta]"/>
    </coding>
    <text value="24 HR Methylphenidate 18 MG Extended Release Tablet [Concerta]"/>
  </medicationCodeableConcept>

  <dosageInstruction>
    <timing>
      <repeat>
        <boundsPeriod>
          <start value="2006-01-07"/>
        </boundsPeriod>
        <frequency value="1"/>
        <period value="1"/>
        <periodUnits value="d"/>
      </repeat>
      
    </timing>
    <doseQuantity>
      <value value="1"/>
      <unit value="{tablet}"/>
      <system value="http://unitsofmeasure.org"/>
      <code value="{tablet}"/>
    </doseQuantity>
    
    <text value="1 daily"/>
  </dosageInstruction>
  <dispenseRequest>
     <numberOfRepeatsAllowed value="1"/>
     
     <quantity>
        <value value="30"/>
        <unit value="{tablet}"/>
        <system value="http://unitsofmeasure.org"/>
        <code value="{tablet}"/>
     </quantity>
     
     <expectedSupplyDuration>
        <value value="30"/>
        <unit value="days"/>
        <system value="http://unitsofmeasure.org"/>
        <code value="d"/>
     </expectedSupplyDuration>
     
  </dispenseRequest>
  
</MedicationOrder>

  </resource>
  <request>
    <method value="POST"/>
    <url value="MedicationOrder/134"/>
  </request>
</entry>
<entry>
  <resource>
    
    
<MedicationDispense>
  <id value="593"/>
  <!--  insert contents here  -->
   <text>
    <status value="generated"/>
    <div xmlns="http://www.w3.org/1999/xhtml">
      Dispensed 30 tablets = 30 day supply of 24 HR Methylphenidate 18 MG Extended Release Tablet [Concerta]
    </div>
  </text>

  <status value="completed"/>

  <patient>
    <reference value="Patient/1186747"/>
  </patient>

  <authorizingPrescription>
    <reference value="MedicationOrder/134"/>
  </authorizingPrescription>

  <quantity>
      <value value="30"/>
      <unit value="tablets"/>
      <system value="http://unitsofmeasure.org"/>
      <code value="{tablets}"/>
  </quantity>

  <daysSupply>
      <value value="30" />
      <unit value="days" />
      <system value="http://unitsofmeasure.org" />
      <code value="d" />
  </daysSupply>

  <medicationCodeableConcept>
    <coding>
        <system value="http://www.nlm.nih.gov/research/umls/rxnorm"/>
        <code value="284429"/>
        <display value="24 HR Methylphenidate 18 MG Extended Release Tablet [Concerta]"/>
    </coding>
    <text value="24 HR Methylphenidate 18 MG Extended Release Tablet [Concerta]"/>
  </medicationCodeableConcept>

  <whenHandedOver value="2006-05-01"/>

</MedicationDispense>

  </resource>
  <request>
    <method value="POST"/>
    <url value="MedicationDispense/593"/>
  </request>
</entry>
<entry>
  <resource>
    
    
<MedicationDispense>
  <id value="595"/>
  <!--  insert contents here  -->
   <text>
    <status value="generated"/>
    <div xmlns="http://www.w3.org/1999/xhtml">
      Dispensed 30 tablets = 30 day supply of 24 HR Methylphenidate 18 MG Extended Release Tablet [Concerta]
    </div>
  </text>

  <status value="completed"/>

  <patient>
    <reference value="Patient/1186747"/>
  </patient>

  <authorizingPrescription>
    <reference value="MedicationOrder/134"/>
  </authorizingPrescription>

  <quantity>
      <value value="30"/>
      <unit value="tablets"/>
      <system value="http://unitsofmeasure.org"/>
      <code value="{tablets}"/>
  </quantity>

  <daysSupply>
      <value value="30" />
      <unit value="days" />
      <system value="http://unitsofmeasure.org" />
      <code value="d" />
  </daysSupply>

  <medicationCodeableConcept>
    <coding>
        <system value="http://www.nlm.nih.gov/research/umls/rxnorm"/>
        <code value="284429"/>
        <display value="24 HR Methylphenidate 18 MG Extended Release Tablet [Concerta]"/>
    </coding>
    <text value="24 HR Methylphenidate 18 MG Extended Release Tablet [Concerta]"/>
  </medicationCodeableConcept>

  <whenHandedOver value="2006-08-14"/>

</MedicationDispense>

  </resource>
  <request>
    <method value="POST"/>
    <url value="MedicationDispense/595"/>
  </request>
</entry>
<entry>
  <resource>
    
    
<MedicationDispense>
  <id value="596"/>
  <!--  insert contents here  -->
   <text>
    <status value="generated"/>
    <div xmlns="http://www.w3.org/1999/xhtml">
      Dispensed 30 tablets = 30 day supply of 24 HR Methylphenidate 18 MG Extended Release Tablet [Concerta]
    </div>
  </text>

  <status value="completed"/>

  <patient>
    <reference value="Patient/1186747"/>
  </patient>

  <authorizingPrescription>
    <reference value="MedicationOrder/134"/>
  </authorizingPrescription>

  <quantity>
      <value value="30"/>
      <unit value="tablets"/>
      <system value="http://unitsofmeasure.org"/>
      <code value="{tablets}"/>
  </quantity>

  <daysSupply>
      <value value="30" />
      <unit value="days" />
      <system value="http://unitsofmeasure.org" />
      <code value="d" />
  </daysSupply>

  <medicationCodeableConcept>
    <coding>
        <system value="http://www.nlm.nih.gov/research/umls/rxnorm"/>
        <code value="284429"/>
        <display value="24 HR Methylphenidate 18 MG Extended Release Tablet [Concerta]"/>
    </coding>
    <text value="24 HR Methylphenidate 18 MG Extended Release Tablet [Concerta]"/>
  </medicationCodeableConcept>

  <whenHandedOver value="2006-09-10"/>

</MedicationDispense>

  </resource>
  <request>
    <method value="POST"/>
    <url value="MedicationDispense/596"/>
  </request>
</entry>
<entry>
  <resource>
    
    
<MedicationDispense>
  <id value="591"/>
  <!--  insert contents here  -->
   <text>
    <status value="generated"/>
    <div xmlns="http://www.w3.org/1999/xhtml">
      Dispensed 30 tablets = 30 day supply of 24 HR Methylphenidate 18 MG Extended Release Tablet [Concerta]
    </div>
  </text>

  <status value="completed"/>

  <patient>
    <reference value="Patient/1186747"/>
  </patient>

  <authorizingPrescription>
    <reference value="MedicationOrder/134"/>
  </authorizingPrescription>

  <quantity>
      <value value="30"/>
      <unit value="tablets"/>
      <system value="http://unitsofmeasure.org"/>
      <code value="{tablets}"/>
  </quantity>

  <daysSupply>
      <value value="30" />
      <unit value="days" />
      <system value="http://unitsofmeasure.org" />
      <code value="d" />
  </daysSupply>

  <medicationCodeableConcept>
    <coding>
        <system value="http://www.nlm.nih.gov/research/umls/rxnorm"/>
        <code value="284429"/>
        <display value="24 HR Methylphenidate 18 MG Extended Release Tablet [Concerta]"/>
    </coding>
    <text value="24 HR Methylphenidate 18 MG Extended Release Tablet [Concerta]"/>
  </medicationCodeableConcept>

  <whenHandedOver value="2006-01-07"/>

</MedicationDispense>

  </resource>
  <request>
    <method value="POST"/>
    <url value="MedicationDispense/591"/>
  </request>
</entry>
<entry>
  <resource>
    
    
<MedicationDispense>
  <id value="600"/>
  <!--  insert contents here  -->
   <text>
    <status value="generated"/>
    <div xmlns="http://www.w3.org/1999/xhtml">
      Dispensed 30 tablets = 30 day supply of 24 HR Methylphenidate 18 MG Extended Release Tablet [Concerta]
    </div>
  </text>

  <status value="completed"/>

  <patient>
    <reference value="Patient/1186747"/>
  </patient>

  <authorizingPrescription>
    <reference value="MedicationOrder/134"/>
  </authorizingPrescription>

  <quantity>
      <value value="30"/>
      <unit value="tablets"/>
      <system value="http://unitsofmeasure.org"/>
      <code value="{tablets}"/>
  </quantity>

  <daysSupply>
      <value value="30" />
      <unit value="days" />
      <system value="http://unitsofmeasure.org" />
      <code value="d" />
  </daysSupply>

  <medicationCodeableConcept>
    <coding>
        <system value="http://www.nlm.nih.gov/research/umls/rxnorm"/>
        <code value="284429"/>
        <display value="24 HR Methylphenidate 18 MG Extended Release Tablet [Concerta]"/>
    </coding>
    <text value="24 HR Methylphenidate 18 MG Extended Release Tablet [Concerta]"/>
  </medicationCodeableConcept>

  <whenHandedOver value="2007-02-19"/>

</MedicationDispense>

  </resource>
  <request>
    <method value="POST"/>
    <url value="MedicationDispense/600"/>
  </request>
</entry>
<entry>
  <resource>
    
    
<MedicationDispense>
  <id value="599"/>
  <!--  insert contents here  -->
   <text>
    <status value="generated"/>
    <div xmlns="http://www.w3.org/1999/xhtml">
      Dispensed 30 tablets = 30 day supply of 24 HR Methylphenidate 18 MG Extended Release Tablet [Concerta]
    </div>
  </text>

  <status value="completed"/>

  <patient>
    <reference value="Patient/1186747"/>
  </patient>

  <authorizingPrescription>
    <reference value="MedicationOrder/134"/>
  </authorizingPrescription>

  <quantity>
      <value value="30"/>
      <unit value="tablets"/>
      <system value="http://unitsofmeasure.org"/>
      <code value="{tablets}"/>
  </quantity>

  <daysSupply>
      <value value="30" />
      <unit value="days" />
      <system value="http://unitsofmeasure.org" />
      <code value="d" />
  </daysSupply>

  <medicationCodeableConcept>
    <coding>
        <system value="http://www.nlm.nih.gov/research/umls/rxnorm"/>
        <code value="284429"/>
        <display value="24 HR Methylphenidate 18 MG Extended Release Tablet [Concerta]"/>
    </coding>
    <text value="24 HR Methylphenidate 18 MG Extended Release Tablet [Concerta]"/>
  </medicationCodeableConcept>

  <whenHandedOver value="2007-01-07"/>

</MedicationDispense>

  </resource>
  <request>
    <method value="POST"/>
    <url value="MedicationDispense/599"/>
  </request>
</entry>
<entry>
  <resource>
    
    
<MedicationDispense>
  <id value="592"/>
  <!--  insert contents here  -->
   <text>
    <status value="generated"/>
    <div xmlns="http://www.w3.org/1999/xhtml">
      Dispensed 30 tablets = 30 day supply of 24 HR Methylphenidate 18 MG Extended Release Tablet [Concerta]
    </div>
  </text>

  <status value="completed"/>

  <patient>
    <reference value="Patient/1186747"/>
  </patient>

  <authorizingPrescription>
    <reference value="MedicationOrder/134"/>
  </authorizingPrescription>

  <quantity>
      <value value="30"/>
      <unit value="tablets"/>
      <system value="http://unitsofmeasure.org"/>
      <code value="{tablets}"/>
  </quantity>

  <daysSupply>
      <value value="30" />
      <unit value="days" />
      <system value="http://unitsofmeasure.org" />
      <code value="d" />
  </daysSupply>

  <medicationCodeableConcept>
    <coding>
        <system value="http://www.nlm.nih.gov/research/umls/rxnorm"/>
        <code value="284429"/>
        <display value="24 HR Methylphenidate 18 MG Extended Release Tablet [Concerta]"/>
    </coding>
    <text value="24 HR Methylphenidate 18 MG Extended Release Tablet [Concerta]"/>
  </medicationCodeableConcept>

  <whenHandedOver value="2006-02-08"/>

</MedicationDispense>

  </resource>
  <request>
    <method value="POST"/>
    <url value="MedicationDispense/592"/>
  </request>
</entry>
<entry>
  <resource>
    
    
<MedicationDispense>
  <id value="598"/>
  <!--  insert contents here  -->
   <text>
    <status value="generated"/>
    <div xmlns="http://www.w3.org/1999/xhtml">
      Dispensed 30 tablets = 30 day supply of 24 HR Methylphenidate 18 MG Extended Release Tablet [Concerta]
    </div>
  </text>

  <status value="completed"/>

  <patient>
    <reference value="Patient/1186747"/>
  </patient>

  <authorizingPrescription>
    <reference value="MedicationOrder/134"/>
  </authorizingPrescription>

  <quantity>
      <value value="30"/>
      <unit value="tablets"/>
      <system value="http://unitsofmeasure.org"/>
      <code value="{tablets}"/>
  </quantity>

  <daysSupply>
      <value value="30" />
      <unit value="days" />
      <system value="http://unitsofmeasure.org" />
      <code value="d" />
  </daysSupply>

  <medicationCodeableConcept>
    <coding>
        <system value="http://www.nlm.nih.gov/research/umls/rxnorm"/>
        <code value="284429"/>
        <display value="24 HR Methylphenidate 18 MG Extended Release Tablet [Concerta]"/>
    </coding>
    <text value="24 HR Methylphenidate 18 MG Extended Release Tablet [Concerta]"/>
  </medicationCodeableConcept>

  <whenHandedOver value="2006-11-08"/>

</MedicationDispense>

  </resource>
  <request>
    <method value="POST"/>
    <url value="MedicationDispense/598"/>
  </request>
</entry>
<entry>
  <resource>
    
    
<MedicationDispense>
  <id value="597"/>
  <!--  insert contents here  -->
   <text>
    <status value="generated"/>
    <div xmlns="http://www.w3.org/1999/xhtml">
      Dispensed 30 tablets = 30 day supply of 24 HR Methylphenidate 18 MG Extended Release Tablet [Concerta]
    </div>
  </text>

  <status value="completed"/>

  <patient>
    <reference value="Patient/1186747"/>
  </patient>

  <authorizingPrescription>
    <reference value="MedicationOrder/134"/>
  </authorizingPrescription>

  <quantity>
      <value value="30"/>
      <unit value="tablets"/>
      <system value="http://unitsofmeasure.org"/>
      <code value="{tablets}"/>
  </quantity>

  <daysSupply>
      <value value="30" />
      <unit value="days" />
      <system value="http://unitsofmeasure.org" />
      <code value="d" />
  </daysSupply>

  <medicationCodeableConcept>
    <coding>
        <system value="http://www.nlm.nih.gov/research/umls/rxnorm"/>
        <code value="284429"/>
        <display value="24 HR Methylphenidate 18 MG Extended Release Tablet [Concerta]"/>
    </coding>
    <text value="24 HR Methylphenidate 18 MG Extended Release Tablet [Concerta]"/>
  </medicationCodeableConcept>

  <whenHandedOver value="2006-10-17"/>

</MedicationDispense>

  </resource>
  <request>
    <method value="POST"/>
    <url value="MedicationDispense/597"/>
  </request>
</entry>
<entry>
  <resource>
    
    
<MedicationDispense>
  <id value="601"/>
  <!--  insert contents here  -->
   <text>
    <status value="generated"/>
    <div xmlns="http://www.w3.org/1999/xhtml">
      Dispensed 30 tablets = 30 day supply of 24 HR Methylphenidate 18 MG Extended Release Tablet [Concerta]
    </div>
  </text>

  <status value="completed"/>

  <patient>
    <reference value="Patient/1186747"/>
  </patient>

  <authorizingPrescription>
    <reference value="MedicationOrder/134"/>
  </authorizingPrescription>

  <quantity>
      <value value="30"/>
      <unit value="tablets"/>
      <system value="http://unitsofmeasure.org"/>
      <code value="{tablets}"/>
  </quantity>

  <daysSupply>
      <value value="30" />
      <unit value="days" />
      <system value="http://unitsofmeasure.org" />
      <code value="d" />
  </daysSupply>

  <medicationCodeableConcept>
    <coding>
        <system value="http://www.nlm.nih.gov/research/umls/rxnorm"/>
        <code value="284429"/>
        <display value="24 HR Methylphenidate 18 MG Extended Release Tablet [Concerta]"/>
    </coding>
    <text value="24 HR Methylphenidate 18 MG Extended Release Tablet [Concerta]"/>
  </medicationCodeableConcept>

  <whenHandedOver value="2007-06-02"/>

</MedicationDispense>

  </resource>
  <request>
    <method value="POST"/>
    <url value="MedicationDispense/601"/>
  </request>
</entry>
<entry>
  <resource>
    
    
<MedicationDispense>
  <id value="594"/>
  <!--  insert contents here  -->
   <text>
    <status value="generated"/>
    <div xmlns="http://www.w3.org/1999/xhtml">
      Dispensed 30 tablets = 30 day supply of 24 HR Methylphenidate 18 MG Extended Release Tablet [Concerta]
    </div>
  </text>

  <status value="completed"/>

  <patient>
    <reference value="Patient/1186747"/>
  </patient>

  <authorizingPrescription>
    <reference value="MedicationOrder/134"/>
  </authorizingPrescription>

  <quantity>
      <value value="30"/>
      <unit value="tablets"/>
      <system value="http://unitsofmeasure.org"/>
      <code value="{tablets}"/>
  </quantity>

  <daysSupply>
      <value value="30" />
      <unit value="days" />
      <system value="http://unitsofmeasure.org" />
      <code value="d" />
  </daysSupply>

  <medicationCodeableConcept>
    <coding>
        <system value="http://www.nlm.nih.gov/research/umls/rxnorm"/>
        <code value="284429"/>
        <display value="24 HR Methylphenidate 18 MG Extended Release Tablet [Concerta]"/>
    </coding>
    <text value="24 HR Methylphenidate 18 MG Extended Release Tablet [Concerta]"/>
  </medicationCodeableConcept>

  <whenHandedOver value="2006-07-13"/>

</MedicationDispense>

  </resource>
  <request>
    <method value="POST"/>
    <url value="MedicationDispense/594"/>
  </request>
</entry>
<entry>
  <resource>
    
    
<MedicationOrder>
  <id value="135"/>
  <text>
    <status value="generated"/>
    <div xmlns="http://www.w3.org/1999/xhtml">
      Ciprofloxacin 3 MG/ML / Dexamethasone 1 MG/ML Otic Suspension [Ciprodex] (rxnorm: 404630)
    </div>
  </text>

  <status value="active" />
  <patient>
    <reference value="Patient/1186747"/>
  </patient>

  <medicationCodeableConcept>
    <coding>
        <system value="http://www.nlm.nih.gov/research/umls/rxnorm"/>
        <code value="404630"/>
        <display value="Ciprofloxacin 3 MG/ML / Dexamethasone 1 MG/ML Otic Suspension [Ciprodex]"/>
    </coding>
    <text value="Ciprofloxacin 3 MG/ML / Dexamethasone 1 MG/ML Otic Suspension [Ciprodex]"/>
  </medicationCodeableConcept>

  <dosageInstruction>
    <timing>
      <repeat>
        <boundsPeriod>
          <start value="2006-09-25"/>
        </boundsPeriod>
        <frequency value="3"/>
        <period value="1"/>
        <periodUnits value="d"/>
      </repeat>
      
    </timing>
    <doseQuantity>
      <value value="4"/>
      <unit value="[drp]"/>
      <system value="http://unitsofmeasure.org"/>
      <code value="[drp]"/>
    </doseQuantity>
    
    <text value="4 gtt in ear bid x7 day"/>
  </dosageInstruction>
  <dispenseRequest>
     <numberOfRepeatsAllowed value="1"/>
     
     <quantity>
        <value value="1"/>
        <unit value="[drp]"/>
        <system value="http://unitsofmeasure.org"/>
        <code value="[drp]"/>
     </quantity>
     
     <expectedSupplyDuration>
        <value value="7"/>
        <unit value="days"/>
        <system value="http://unitsofmeasure.org"/>
        <code value="d"/>
     </expectedSupplyDuration>
     
  </dispenseRequest>
  
</MedicationOrder>

  </resource>
  <request>
    <method value="POST"/>
    <url value="MedicationOrder/135"/>
  </request>
</entry>
<entry>
  <resource>
    
    
<MedicationOrder>
  <id value="136"/>
  <text>
    <status value="generated"/>
    <div xmlns="http://www.w3.org/1999/xhtml">
      atomoxetine 18 MG Oral Capsule [Strattera] (rxnorm: 352318)
    </div>
  </text>

  <status value="active" />
  <patient>
    <reference value="Patient/1186747"/>
  </patient>

  <medicationCodeableConcept>
    <coding>
        <system value="http://www.nlm.nih.gov/research/umls/rxnorm"/>
        <code value="352318"/>
        <display value="atomoxetine 18 MG Oral Capsule [Strattera]"/>
    </coding>
    <text value="atomoxetine 18 MG Oral Capsule [Strattera]"/>
  </medicationCodeableConcept>

  <dosageInstruction>
    <timing>
      <repeat>
        <boundsPeriod>
          <start value="2007-07-17"/>
        </boundsPeriod>
        <frequency value="1"/>
        <period value="1"/>
        <periodUnits value="d"/>
      </repeat>
      
    </timing>
    <doseQuantity>
      <value value="1"/>
      <unit value="{tablet}"/>
      <system value="http://unitsofmeasure.org"/>
      <code value="{tablet}"/>
    </doseQuantity>
    
    <text value="1 daily"/>
  </dosageInstruction>
  <dispenseRequest>
     <numberOfRepeatsAllowed value="1"/>
     
     <quantity>
        <value value="30"/>
        <unit value="{tablet}"/>
        <system value="http://unitsofmeasure.org"/>
        <code value="{tablet}"/>
     </quantity>
     
     <expectedSupplyDuration>
        <value value="30"/>
        <unit value="days"/>
        <system value="http://unitsofmeasure.org"/>
        <code value="d"/>
     </expectedSupplyDuration>
     
  </dispenseRequest>
  
</MedicationOrder>

  </resource>
  <request>
    <method value="POST"/>
    <url value="MedicationOrder/136"/>
  </request>
</entry>
<entry>
  <resource>
    
    
<MedicationDispense>
  <id value="605"/>
  <!--  insert contents here  -->
   <text>
    <status value="generated"/>
    <div xmlns="http://www.w3.org/1999/xhtml">
      Dispensed 30 tablets = 30 day supply of atomoxetine 18 MG Oral Capsule [Strattera]
    </div>
  </text>

  <status value="completed"/>

  <patient>
    <reference value="Patient/1186747"/>
  </patient>

  <authorizingPrescription>
    <reference value="MedicationOrder/136"/>
  </authorizingPrescription>

  <quantity>
      <value value="30"/>
      <unit value="tablets"/>
      <system value="http://unitsofmeasure.org"/>
      <code value="{tablets}"/>
  </quantity>

  <daysSupply>
      <value value="30" />
      <unit value="days" />
      <system value="http://unitsofmeasure.org" />
      <code value="d" />
  </daysSupply>

  <medicationCodeableConcept>
    <coding>
        <system value="http://www.nlm.nih.gov/research/umls/rxnorm"/>
        <code value="352318"/>
        <display value="atomoxetine 18 MG Oral Capsule [Strattera]"/>
    </coding>
    <text value="atomoxetine 18 MG Oral Capsule [Strattera]"/>
  </medicationCodeableConcept>

  <whenHandedOver value="2007-11-21"/>

</MedicationDispense>

  </resource>
  <request>
    <method value="POST"/>
    <url value="MedicationDispense/605"/>
  </request>
</entry>
<entry>
  <resource>
    
    
<MedicationDispense>
  <id value="602"/>
  <!--  insert contents here  -->
   <text>
    <status value="generated"/>
    <div xmlns="http://www.w3.org/1999/xhtml">
      Dispensed 30 tablets = 30 day supply of atomoxetine 18 MG Oral Capsule [Strattera]
    </div>
  </text>

  <status value="completed"/>

  <patient>
    <reference value="Patient/1186747"/>
  </patient>

  <authorizingPrescription>
    <reference value="MedicationOrder/136"/>
  </authorizingPrescription>

  <quantity>
      <value value="30"/>
      <unit value="tablets"/>
      <system value="http://unitsofmeasure.org"/>
      <code value="{tablets}"/>
  </quantity>

  <daysSupply>
      <value value="30" />
      <unit value="days" />
      <system value="http://unitsofmeasure.org" />
      <code value="d" />
  </daysSupply>

  <medicationCodeableConcept>
    <coding>
        <system value="http://www.nlm.nih.gov/research/umls/rxnorm"/>
        <code value="352318"/>
        <display value="atomoxetine 18 MG Oral Capsule [Strattera]"/>
    </coding>
    <text value="atomoxetine 18 MG Oral Capsule [Strattera]"/>
  </medicationCodeableConcept>

  <whenHandedOver value="2007-07-17"/>

</MedicationDispense>

  </resource>
  <request>
    <method value="POST"/>
    <url value="MedicationDispense/602"/>
  </request>
</entry>
<entry>
  <resource>
    
    
<MedicationDispense>
  <id value="604"/>
  <!--  insert contents here  -->
   <text>
    <status value="generated"/>
    <div xmlns="http://www.w3.org/1999/xhtml">
      Dispensed 30 tablets = 30 day supply of atomoxetine 18 MG Oral Capsule [Strattera]
    </div>
  </text>

  <status value="completed"/>

  <patient>
    <reference value="Patient/1186747"/>
  </patient>

  <authorizingPrescription>
    <reference value="MedicationOrder/136"/>
  </authorizingPrescription>

  <quantity>
      <value value="30"/>
      <unit value="tablets"/>
      <system value="http://unitsofmeasure.org"/>
      <code value="{tablets}"/>
  </quantity>

  <daysSupply>
      <value value="30" />
      <unit value="days" />
      <system value="http://unitsofmeasure.org" />
      <code value="d" />
  </daysSupply>

  <medicationCodeableConcept>
    <coding>
        <system value="http://www.nlm.nih.gov/research/umls/rxnorm"/>
        <code value="352318"/>
        <display value="atomoxetine 18 MG Oral Capsule [Strattera]"/>
    </coding>
    <text value="atomoxetine 18 MG Oral Capsule [Strattera]"/>
  </medicationCodeableConcept>

  <whenHandedOver value="2007-10-19"/>

</MedicationDispense>

  </resource>
  <request>
    <method value="POST"/>
    <url value="MedicationDispense/604"/>
  </request>
</entry>
<entry>
  <resource>
    
    
<MedicationDispense>
  <id value="603"/>
  <!--  insert contents here  -->
   <text>
    <status value="generated"/>
    <div xmlns="http://www.w3.org/1999/xhtml">
      Dispensed 30 tablets = 30 day supply of atomoxetine 18 MG Oral Capsule [Strattera]
    </div>
  </text>

  <status value="completed"/>

  <patient>
    <reference value="Patient/1186747"/>
  </patient>

  <authorizingPrescription>
    <reference value="MedicationOrder/136"/>
  </authorizingPrescription>

  <quantity>
      <value value="30"/>
      <unit value="tablets"/>
      <system value="http://unitsofmeasure.org"/>
      <code value="{tablets}"/>
  </quantity>

  <daysSupply>
      <value value="30" />
      <unit value="days" />
      <system value="http://unitsofmeasure.org" />
      <code value="d" />
  </daysSupply>

  <medicationCodeableConcept>
    <coding>
        <system value="http://www.nlm.nih.gov/research/umls/rxnorm"/>
        <code value="352318"/>
        <display value="atomoxetine 18 MG Oral Capsule [Strattera]"/>
    </coding>
    <text value="atomoxetine 18 MG Oral Capsule [Strattera]"/>
  </medicationCodeableConcept>

  <whenHandedOver value="2007-09-16"/>

</MedicationDispense>

  </resource>
  <request>
    <method value="POST"/>
    <url value="MedicationDispense/603"/>
  </request>
</entry>
<entry>
  <resource>
    
    
<MedicationOrder>
  <id value="137"/>
  <text>
    <status value="generated"/>
    <div xmlns="http://www.w3.org/1999/xhtml">
      atomoxetine 25 MG Oral Capsule [Strattera] (rxnorm: 352319)
    </div>
  </text>

  <status value="active" />
  <patient>
    <reference value="Patient/1186747"/>
  </patient>

  <medicationCodeableConcept>
    <coding>
        <system value="http://www.nlm.nih.gov/research/umls/rxnorm"/>
        <code value="352319"/>
        <display value="atomoxetine 25 MG Oral Capsule [Strattera]"/>
    </coding>
    <text value="atomoxetine 25 MG Oral Capsule [Strattera]"/>
  </medicationCodeableConcept>

  <dosageInstruction>
    <timing>
      <repeat>
        <boundsPeriod>
          <start value="2008-01-13"/>
        </boundsPeriod>
        <frequency value="1"/>
        <period value="1"/>
        <periodUnits value="d"/>
      </repeat>
      
    </timing>
    <doseQuantity>
      <value value="1"/>
      <unit value="{tablet}"/>
      <system value="http://unitsofmeasure.org"/>
      <code value="{tablet}"/>
    </doseQuantity>
    
    <text value="1 daily"/>
  </dosageInstruction>
  <dispenseRequest>
     <numberOfRepeatsAllowed value="1"/>
     
     <quantity>
        <value value="30"/>
        <unit value="{tablet}"/>
        <system value="http://unitsofmeasure.org"/>
        <code value="{tablet}"/>
     </quantity>
     
     <expectedSupplyDuration>
        <value value="30"/>
        <unit value="days"/>
        <system value="http://unitsofmeasure.org"/>
        <code value="d"/>
     </expectedSupplyDuration>
     
  </dispenseRequest>
  
</MedicationOrder>

  </resource>
  <request>
    <method value="POST"/>
    <url value="MedicationOrder/137"/>
  </request>
</entry>
<entry>
  <resource>
    
    
<MedicationDispense>
  <id value="608"/>
  <!--  insert contents here  -->
   <text>
    <status value="generated"/>
    <div xmlns="http://www.w3.org/1999/xhtml">
      Dispensed 30 tablets = 30 day supply of atomoxetine 25 MG Oral Capsule [Strattera]
    </div>
  </text>

  <status value="completed"/>

  <patient>
    <reference value="Patient/1186747"/>
  </patient>

  <authorizingPrescription>
    <reference value="MedicationOrder/137"/>
  </authorizingPrescription>

  <quantity>
      <value value="30"/>
      <unit value="tablets"/>
      <system value="http://unitsofmeasure.org"/>
      <code value="{tablets}"/>
  </quantity>

  <daysSupply>
      <value value="30" />
      <unit value="days" />
      <system value="http://unitsofmeasure.org" />
      <code value="d" />
  </daysSupply>

  <medicationCodeableConcept>
    <coding>
        <system value="http://www.nlm.nih.gov/research/umls/rxnorm"/>
        <code value="352319"/>
        <display value="atomoxetine 25 MG Oral Capsule [Strattera]"/>
    </coding>
    <text value="atomoxetine 25 MG Oral Capsule [Strattera]"/>
  </medicationCodeableConcept>

  <whenHandedOver value="2008-04-25"/>

</MedicationDispense>

  </resource>
  <request>
    <method value="POST"/>
    <url value="MedicationDispense/608"/>
  </request>
</entry>
<entry>
  <resource>
    
    
<MedicationDispense>
  <id value="609"/>
  <!--  insert contents here  -->
   <text>
    <status value="generated"/>
    <div xmlns="http://www.w3.org/1999/xhtml">
      Dispensed 30 tablets = 30 day supply of atomoxetine 25 MG Oral Capsule [Strattera]
    </div>
  </text>

  <status value="completed"/>

  <patient>
    <reference value="Patient/1186747"/>
  </patient>

  <authorizingPrescription>
    <reference value="MedicationOrder/137"/>
  </authorizingPrescription>

  <quantity>
      <value value="30"/>
      <unit value="tablets"/>
      <system value="http://unitsofmeasure.org"/>
      <code value="{tablets}"/>
  </quantity>

  <daysSupply>
      <value value="30" />
      <unit value="days" />
      <system value="http://unitsofmeasure.org" />
      <code value="d" />
  </daysSupply>

  <medicationCodeableConcept>
    <coding>
        <system value="http://www.nlm.nih.gov/research/umls/rxnorm"/>
        <code value="352319"/>
        <display value="atomoxetine 25 MG Oral Capsule [Strattera]"/>
    </coding>
    <text value="atomoxetine 25 MG Oral Capsule [Strattera]"/>
  </medicationCodeableConcept>

  <whenHandedOver value="2008-05-21"/>

</MedicationDispense>

  </resource>
  <request>
    <method value="POST"/>
    <url value="MedicationDispense/609"/>
  </request>
</entry>
<entry>
  <resource>
    
    
<MedicationDispense>
  <id value="610"/>
  <!--  insert contents here  -->
   <text>
    <status value="generated"/>
    <div xmlns="http://www.w3.org/1999/xhtml">
      Dispensed 30 tablets = 30 day supply of atomoxetine 25 MG Oral Capsule [Strattera]
    </div>
  </text>

  <status value="completed"/>

  <patient>
    <reference value="Patient/1186747"/>
  </patient>

  <authorizingPrescription>
    <reference value="MedicationOrder/137"/>
  </authorizingPrescription>

  <quantity>
      <value value="30"/>
      <unit value="tablets"/>
      <system value="http://unitsofmeasure.org"/>
      <code value="{tablets}"/>
  </quantity>

  <daysSupply>
      <value value="30" />
      <unit value="days" />
      <system value="http://unitsofmeasure.org" />
      <code value="d" />
  </daysSupply>

  <medicationCodeableConcept>
    <coding>
        <system value="http://www.nlm.nih.gov/research/umls/rxnorm"/>
        <code value="352319"/>
        <display value="atomoxetine 25 MG Oral Capsule [Strattera]"/>
    </coding>
    <text value="atomoxetine 25 MG Oral Capsule [Strattera]"/>
  </medicationCodeableConcept>

  <whenHandedOver value="2008-06-23"/>

</MedicationDispense>

  </resource>
  <request>
    <method value="POST"/>
    <url value="MedicationDispense/610"/>
  </request>
</entry>
<entry>
  <resource>
    
    
<MedicationDispense>
  <id value="606"/>
  <!--  insert contents here  -->
   <text>
    <status value="generated"/>
    <div xmlns="http://www.w3.org/1999/xhtml">
      Dispensed 30 tablets = 30 day supply of atomoxetine 25 MG Oral Capsule [Strattera]
    </div>
  </text>

  <status value="completed"/>

  <patient>
    <reference value="Patient/1186747"/>
  </patient>

  <authorizingPrescription>
    <reference value="MedicationOrder/137"/>
  </authorizingPrescription>

  <quantity>
      <value value="30"/>
      <unit value="tablets"/>
      <system value="http://unitsofmeasure.org"/>
      <code value="{tablets}"/>
  </quantity>

  <daysSupply>
      <value value="30" />
      <unit value="days" />
      <system value="http://unitsofmeasure.org" />
      <code value="d" />
  </daysSupply>

  <medicationCodeableConcept>
    <coding>
        <system value="http://www.nlm.nih.gov/research/umls/rxnorm"/>
        <code value="352319"/>
        <display value="atomoxetine 25 MG Oral Capsule [Strattera]"/>
    </coding>
    <text value="atomoxetine 25 MG Oral Capsule [Strattera]"/>
  </medicationCodeableConcept>

  <whenHandedOver value="2008-01-13"/>

</MedicationDispense>

  </resource>
  <request>
    <method value="POST"/>
    <url value="MedicationDispense/606"/>
  </request>
</entry>
<entry>
  <resource>
    
    
<MedicationDispense>
  <id value="611"/>
  <!--  insert contents here  -->
   <text>
    <status value="generated"/>
    <div xmlns="http://www.w3.org/1999/xhtml">
      Dispensed 30 tablets = 30 day supply of atomoxetine 25 MG Oral Capsule [Strattera]
    </div>
  </text>

  <status value="completed"/>

  <patient>
    <reference value="Patient/1186747"/>
  </patient>

  <authorizingPrescription>
    <reference value="MedicationOrder/137"/>
  </authorizingPrescription>

  <quantity>
      <value value="30"/>
      <unit value="tablets"/>
      <system value="http://unitsofmeasure.org"/>
      <code value="{tablets}"/>
  </quantity>

  <daysSupply>
      <value value="30" />
      <unit value="days" />
      <system value="http://unitsofmeasure.org" />
      <code value="d" />
  </daysSupply>

  <medicationCodeableConcept>
    <coding>
        <system value="http://www.nlm.nih.gov/research/umls/rxnorm"/>
        <code value="352319"/>
        <display value="atomoxetine 25 MG Oral Capsule [Strattera]"/>
    </coding>
    <text value="atomoxetine 25 MG Oral Capsule [Strattera]"/>
  </medicationCodeableConcept>

  <whenHandedOver value="2008-07-20"/>

</MedicationDispense>

  </resource>
  <request>
    <method value="POST"/>
    <url value="MedicationDispense/611"/>
  </request>
</entry>
<entry>
  <resource>
    
    
<MedicationDispense>
  <id value="607"/>
  <!--  insert contents here  -->
   <text>
    <status value="generated"/>
    <div xmlns="http://www.w3.org/1999/xhtml">
      Dispensed 30 tablets = 30 day supply of atomoxetine 25 MG Oral Capsule [Strattera]
    </div>
  </text>

  <status value="completed"/>

  <patient>
    <reference value="Patient/1186747"/>
  </patient>

  <authorizingPrescription>
    <reference value="MedicationOrder/137"/>
  </authorizingPrescription>

  <quantity>
      <value value="30"/>
      <unit value="tablets"/>
      <system value="http://unitsofmeasure.org"/>
      <code value="{tablets}"/>
  </quantity>

  <daysSupply>
      <value value="30" />
      <unit value="days" />
      <system value="http://unitsofmeasure.org" />
      <code value="d" />
  </daysSupply>

  <medicationCodeableConcept>
    <coding>
        <system value="http://www.nlm.nih.gov/research/umls/rxnorm"/>
        <code value="352319"/>
        <display value="atomoxetine 25 MG Oral Capsule [Strattera]"/>
    </coding>
    <text value="atomoxetine 25 MG Oral Capsule [Strattera]"/>
  </medicationCodeableConcept>

  <whenHandedOver value="2008-02-17"/>

</MedicationDispense>

  </resource>
  <request>
    <method value="POST"/>
    <url value="MedicationDispense/607"/>
  </request>
</entry>
<entry>
  <resource>
    
    
<MedicationOrder>
  <id value="138"/>
  <text>
    <status value="generated"/>
    <div xmlns="http://www.w3.org/1999/xhtml">
      200 ACTUAT Albuterol 0.09 MG/ACTUAT Metered Dose Inhaler [ProAir HFA] (rxnorm: 745752)
    </div>
  </text>

  <status value="active" />
  <patient>
    <reference value="Patient/1186747"/>
  </patient>

  <medicationCodeableConcept>
    <coding>
        <system value="http://www.nlm.nih.gov/research/umls/rxnorm"/>
        <code value="745752"/>
        <display value="200 ACTUAT Albuterol 0.09 MG/ACTUAT Metered Dose Inhaler [ProAir HFA]"/>
    </coding>
    <text value="200 ACTUAT Albuterol 0.09 MG/ACTUAT Metered Dose Inhaler [ProAir HFA]"/>
  </medicationCodeableConcept>

  <dosageInstruction>
    <timing>
      <repeat>
        <boundsPeriod>
          <start value="2008-05-21"/>
        </boundsPeriod>
        <frequency value="4"/>
        <period value="1"/>
        <periodUnits value="d"/>
      </repeat>
      
    </timing>
    <doseQuantity>
      <value value="2"/>
      <unit value="{puff}"/>
      <system value="http://unitsofmeasure.org"/>
      <code value="{puff}"/>
    </doseQuantity>
    
    <asNeededBoolean value="true"/>
    
    <text value="2 puffs qid prn SOB"/>
  </dosageInstruction>
  <dispenseRequest>
     <numberOfRepeatsAllowed value="1"/>
     
     <quantity>
        <value value="1"/>
        <unit value="{puff}"/>
        <system value="http://unitsofmeasure.org"/>
        <code value="{puff}"/>
     </quantity>
     
     <expectedSupplyDuration>
        <value value="25"/>
        <unit value="days"/>
        <system value="http://unitsofmeasure.org"/>
        <code value="d"/>
     </expectedSupplyDuration>
     
  </dispenseRequest>
  
</MedicationOrder>

  </resource>
  <request>
    <method value="POST"/>
    <url value="MedicationOrder/138"/>
  </request>
</entry>
  <entry>
  <resource>
    
    
  <Condition>
  <id value="302"/>
    <text>
     <status value="generated"/>
     <div xmlns="http://www.w3.org/1999/xhtml">Accidental burning caused by caustic and corrosive substance</div>   
   </text>
    <patient>
      <reference value="Patient/1186747"/>
    </patient>
    <code> 
      <coding>
        <system value="http://snomed.info/sct"/>
        <code value="242489002"/>
        <display value="Accidental burning caused by caustic and corrosive substance"/>
      </coding>
      <text value="Accidental burning caused by caustic and corrosive substance"/>
    </code>
   <clinicalStatus value="confirmed"/>
   <onsetDateTime value="2004-12-31"/>
   
  </Condition>
  
  </resource>
  <request>
    <method value="POST"/>
    <url value="Condition/302"/>
  </request>
</entry>
  <entry>
  <resource>
    
    
  <Condition>
  <id value="303"/>
    <text>
     <status value="generated"/>
     <div xmlns="http://www.w3.org/1999/xhtml">Acute atopic conjunctivitis</div>   
   </text>
    <patient>
      <reference value="Patient/1186747"/>
    </patient>
    <code> 
      <coding>
        <system value="http://snomed.info/sct"/>
        <code value="67678004"/>
        <display value="Acute atopic conjunctivitis"/>
      </coding>
      <text value="Acute atopic conjunctivitis"/>
    </code>
   <clinicalStatus value="confirmed"/>
   <onsetDateTime value="2004-12-31"/>
   
  </Condition>
  
  </resource>
  <request>
    <method value="POST"/>
    <url value="Condition/303"/>
  </request>
</entry>
  <entry>
  <resource>
    
    
  <Condition>
  <id value="304"/>
    <text>
     <status value="generated"/>
     <div xmlns="http://www.w3.org/1999/xhtml">Attention deficit hyperactivity disorder</div>   
   </text>
    <patient>
      <reference value="Patient/1186747"/>
    </patient>
    <code> 
      <coding>
        <system value="http://snomed.info/sct"/>
        <code value="406506008"/>
        <display value="Attention deficit hyperactivity disorder"/>
      </coding>
      <text value="Attention deficit hyperactivity disorder"/>
    </code>
   <clinicalStatus value="confirmed"/>
   <onsetDateTime value="2006-01-18"/>
   
  </Condition>
  
  </resource>
  <request>
    <method value="POST"/>
    <url value="Condition/304"/>
  </request>
</entry>
  <entry>
  <resource>
    
    
  <Condition>
  <id value="305"/>
    <text>
     <status value="generated"/>
     <div xmlns="http://www.w3.org/1999/xhtml">Acute upper respiratory infection</div>   
   </text>
    <patient>
      <reference value="Patient/1186747"/>
    </patient>
    <code> 
      <coding>
        <system value="http://snomed.info/sct"/>
        <code value="54150009"/>
        <display value="Acute upper respiratory infection"/>
      </coding>
      <text value="Acute upper respiratory infection"/>
    </code>
   <clinicalStatus value="confirmed"/>
   <onsetDateTime value="2006-09-25"/>
   
  </Condition>
  
  </resource>
  <request>
    <method value="POST"/>
    <url value="Condition/305"/>
  </request>
</entry>
  <entry>
  <resource>
    
    
  <Condition>
  <id value="306"/>
    <text>
     <status value="generated"/>
     <div xmlns="http://www.w3.org/1999/xhtml">Otalgia</div>   
   </text>
    <patient>
      <reference value="Patient/1186747"/>
    </patient>
    <code> 
      <coding>
        <system value="http://snomed.info/sct"/>
        <code value="16001004"/>
        <display value="Otalgia"/>
      </coding>
      <text value="Otalgia"/>
    </code>
   <clinicalStatus value="confirmed"/>
   <onsetDateTime value="2006-09-25"/>
   
  </Condition>
  
  </resource>
  <request>
    <method value="POST"/>
    <url value="Condition/306"/>
  </request>
</entry>
  <entry>
  <resource>
    
    
  <Condition>
  <id value="307"/>
    <text>
     <status value="generated"/>
     <div xmlns="http://www.w3.org/1999/xhtml">Constipation</div>   
   </text>
    <patient>
      <reference value="Patient/1186747"/>
    </patient>
    <code> 
      <coding>
        <system value="http://snomed.info/sct"/>
        <code value="14760008"/>
        <display value="Constipation"/>
      </coding>
      <text value="Constipation"/>
    </code>
   <clinicalStatus value="confirmed"/>
   <onsetDateTime value="2006-10-16"/>
   
  </Condition>
  
  </resource>
  <request>
    <method value="POST"/>
    <url value="Condition/307"/>
  </request>
</entry>
  <entry>
  <resource>
    
    
  <Condition>
  <id value="308"/>
    <text>
     <status value="generated"/>
     <div xmlns="http://www.w3.org/1999/xhtml">Asthma</div>   
   </text>
    <patient>
      <reference value="Patient/1186747"/>
    </patient>
    <code> 
      <coding>
        <system value="http://snomed.info/sct"/>
        <code value="195967001"/>
        <display value="Asthma"/>
      </coding>
      <text value="Asthma"/>
    </code>
   <clinicalStatus value="confirmed"/>
   <onsetDateTime value="2006-11-23"/>
   
  </Condition>
  
  </resource>
  <request>
    <method value="POST"/>
    <url value="Condition/308"/>
  </request>
</entry>
  <entry>
  <resource>
    
    
  <Condition>
  <id value="309"/>
    <text>
     <status value="generated"/>
     <div xmlns="http://www.w3.org/1999/xhtml">Cough</div>   
   </text>
    <patient>
      <reference value="Patient/1186747"/>
    </patient>
    <code> 
      <coding>
        <system value="http://snomed.info/sct"/>
        <code value="49727002"/>
        <display value="Cough"/>
      </coding>
      <text value="Cough"/>
    </code>
   <clinicalStatus value="confirmed"/>
   <onsetDateTime value="2006-11-23"/>
   
  </Condition>
  
  </resource>
  <request>
    <method value="POST"/>
    <url value="Condition/309"/>
  </request>
</entry>
  <entry>
  <resource>
    
    
  <Condition>
  <id value="310"/>
    <text>
     <status value="generated"/>
     <div xmlns="http://www.w3.org/1999/xhtml">Hemoptysis</div>   
   </text>
    <patient>
      <reference value="Patient/1186747"/>
    </patient>
    <code> 
      <coding>
        <system value="http://snomed.info/sct"/>
        <code value="66857006"/>
        <display value="Hemoptysis"/>
      </coding>
      <text value="Hemoptysis"/>
    </code>
   <clinicalStatus value="confirmed"/>
   <onsetDateTime value="2006-11-23"/>
   
  </Condition>
  
  </resource>
  <request>
    <method value="POST"/>
    <url value="Condition/310"/>
  </request>
</entry>
  <entry>
  <resource>
    
    
  <Condition>
  <id value="311"/>
    <text>
     <status value="generated"/>
     <div xmlns="http://www.w3.org/1999/xhtml">Tic disorder</div>   
   </text>
    <patient>
      <reference value="Patient/1186747"/>
    </patient>
    <code> 
      <coding>
        <system value="http://snomed.info/sct"/>
        <code value="568005"/>
        <display value="Tic disorder"/>
      </coding>
      <text value="Tic disorder"/>
    </code>
   <clinicalStatus value="confirmed"/>
   <onsetDateTime value="2007-12-19"/>
   
  </Condition>
  
  </resource>
  <request>
    <method value="POST"/>
    <url value="Condition/311"/>
  </request>
</entry>
  <entry>
  <resource>
    
    
  <Condition>
  <id value="312"/>
    <text>
     <status value="generated"/>
     <div xmlns="http://www.w3.org/1999/xhtml">Abnormal involuntary movement</div>   
   </text>
    <patient>
      <reference value="Patient/1186747"/>
    </patient>
    <code> 
      <coding>
        <system value="http://snomed.info/sct"/>
        <code value="26079004"/>
        <display value="Abnormal involuntary movement"/>
      </coding>
      <text value="Abnormal involuntary movement"/>
    </code>
   <clinicalStatus value="confirmed"/>
   <onsetDateTime value="2008-02-10"/>
   
  </Condition>
  
  </resource>
  <request>
    <method value="POST"/>
    <url value="Condition/312"/>
  </request>
</entry>
<entry>
  <resource>
    
    
  <Observation>
  <id value="8-smokingstatus"/>
    <text>
      <status value="generated"/>
      <div xmlns="http://www.w3.org/1999/xhtml">Tobacco smoking status: Current every day smoker</div>
    </text>
    <code>
      <coding>
        <system value="http://loinc.org"/>
        <code value="72166-2"/>
        <display value="Tobacco smoking status"/>
      </coding>
      <text value="Tobacco smoking status"/>
    </code>
    <valueCodeableConcept>
      <coding>
        <system value="http://snomed.info/sct"/>
        <code value="449868002"/>
        <display value="Current every day smoker"/>
      </coding>
      <text value="Current every day smoker"/>
    </valueCodeableConcept>
    <status value="final"/>
    <subject>
      <reference value="Patient/1186747"/>
    </subject>
  </Observation>
  
  </resource>
  <request>
    <method value="POST"/>
    <url value="Observation/8-smokingstatus"/>
  </request>
</entry>
<entry>
  <resource>
    
    
  <Observation>
  <id value="1186747-gestage"/>
    <text>
      <status value="generated"/>
      <div xmlns="http://www.w3.org/1999/xhtml">1995-02-22: Gestational age at birth = 32.4 weeks</div>
    </text>
    <code>
      <coding>
        <system value="http://loinc.org"/>
        <code value="18185-9"/>
        <display value="Gestational age at birth"/>
      </coding>
      <text value="Gestational age at birth"/>
    </code>
    <valueQuantity>
      <value value="32.4"/>
      <unit value="weeks"/>
      <system value="http://unitsofmeasure.org" />
      <code value="wk"/>
    </valueQuantity>
    
    <effectiveDateTime value="1995-02-22"/>
    <status value="final"/>
    <subject>
      <reference value="Patient/1186747"/>
    </subject>
  </Observation>
  
  </resource>
  <request>
    <method value="POST"/>
    <url value="Observation/1186747-gestage"/>
  </request>
</entry>
  <entry>
  <resource>
    
    
    <List>
  <id value="25"/>
        <text>
            <status value="generated"/>
            <div xmlns="http://www.w3.org/1999/xhtml">No known allergies</div>
        </text>
        <code>
            <coding>
               <system value="http://loinc.org/"/>
               <code value="52473-6"/>
               <display value="Allergy"/>
            </coding>
            <text value="Allergy"/>
        </code>
        <subject>
          <reference value="Patient/1186747"/>
        </subject>
        <date value="2000"/>
        <mode value="snapshot"/>
        <emptyReason>
            <coding>
                <system value="http://hl7.org/fhir/list-empty-reason"/>
                <code value="nilknown"/>
                <display value="Nil Known"/>
            </coding>
            <text value="Nil Known"/>
        </emptyReason>
    </List>
  
  </resource>
  <request>
    <method value="POST"/>
    <url value="List/25"/>
  </request>
</entry>

</Bundle>
