<?xml version="1.0" encoding="UTF-8"?>
<Bundle xmlns="http://hl7.org/fhir">
    <type value="transaction"/>

  <entry>
  <resource>
    
    
  <Patient>
    <id value="1291938"/>
    <text>
      <status value="generated"/>
      <div xmlns="http://www.w3.org/1999/xhtml">
        <p>Carol Young</p>
      </div>
    </text>
    <identifier>
      <use value="usual"/>
      <type>
        <coding>
          <system value="http://hl7.org/fhir/v2/0203"/>
          <code value="MR"/>
          <display value="Medical record number"/>
        </coding>
        <text value="Medical record number"/>
      </type>
      <system value="http://hospital.smarthealthit.org"/>
      <value value="1291938"/>
    </identifier>
    <name>
      <use value="official"/>
      <family value="Young"/>
      <given value="Carol"/>
      <given value="T."/>
    </name>
    <telecom>
      <system value="phone"/>
      <value value="800-534-4473"/>
      <use value="home"/>
    </telecom>
    <telecom>
      <system value="phone"/>
      <value value="800-383-7276"/>
      <use value="mobile"/>
    </telecom>
    <telecom>
      <system value="email"/>
      <value value="carol.young@example.com"/>
    </telecom>
    <gender value="female" />
    <birthDate value="1932-02-26" />
    <address>
      <use value="home"/>
      <line value="57 Ridge Ave"/>
      <city value="Tulsa"/>
      <state value="OK"/>
      <postalCode value="74116"/>
      <country value="USA"/>
    </address>
    <active value="true"/>
  </Patient>
  
  </resource>
  <request>
    <method value="POST"/>
    <url value="Patient/1291938"/>
  </request>
</entry>
  <entry>
  <resource>
    
    
    <Encounter>
  <id value="766"/>
      <text>
        <status value="generated"/>
        <div xmlns="http://www.w3.org/1999/xhtml">1997-05-17: ambulatory encounter</div>
      </text>
      <status value="finished"/>
      <class value="ambulatory"/>
      <patient>
        <reference value="Patient/1291938"/>
      </patient>
      <period>
       <start value="1997-05-17"/>
       <end value="1997-05-17"/>
      </period>
    </Encounter>
  
  </resource>
  <request>
    <method value="POST"/>
    <url value="Encounter/766"/>
  </request>
</entry>
  <entry>
  <resource>
    
    
    <Encounter>
  <id value="767"/>
      <text>
        <status value="generated"/>
        <div xmlns="http://www.w3.org/1999/xhtml">1997-05-19: ambulatory encounter</div>
      </text>
      <status value="finished"/>
      <class value="ambulatory"/>
      <patient>
        <reference value="Patient/1291938"/>
      </patient>
      <period>
       <start value="1997-05-19"/>
       <end value="1997-05-19"/>
      </period>
    </Encounter>
  
  </resource>
  <request>
    <method value="POST"/>
    <url value="Encounter/767"/>
  </request>
</entry>
  <entry>
  <resource>
    
    
    <Encounter>
  <id value="768"/>
      <text>
        <status value="generated"/>
        <div xmlns="http://www.w3.org/1999/xhtml">1997-06-18: ambulatory encounter</div>
      </text>
      <status value="finished"/>
      <class value="ambulatory"/>
      <patient>
        <reference value="Patient/1291938"/>
      </patient>
      <period>
       <start value="1997-06-18"/>
       <end value="1997-06-18"/>
      </period>
    </Encounter>
  
  </resource>
  <request>
    <method value="POST"/>
    <url value="Encounter/768"/>
  </request>
</entry>
  <entry>
  <resource>
    
    
    <Encounter>
  <id value="769"/>
      <text>
        <status value="generated"/>
        <div xmlns="http://www.w3.org/1999/xhtml">1997-06-19: ambulatory encounter</div>
      </text>
      <status value="finished"/>
      <class value="ambulatory"/>
      <patient>
        <reference value="Patient/1291938"/>
      </patient>
      <period>
       <start value="1997-06-19"/>
       <end value="1997-06-19"/>
      </period>
    </Encounter>
  
  </resource>
  <request>
    <method value="POST"/>
    <url value="Encounter/769"/>
  </request>
</entry>
  <entry>
  <resource>
    
    
    <Encounter>
  <id value="770"/>
      <text>
        <status value="generated"/>
        <div xmlns="http://www.w3.org/1999/xhtml">1997-06-20: ambulatory encounter</div>
      </text>
      <status value="finished"/>
      <class value="ambulatory"/>
      <patient>
        <reference value="Patient/1291938"/>
      </patient>
      <period>
       <start value="1997-06-20"/>
       <end value="1997-06-20"/>
      </period>
    </Encounter>
  
  </resource>
  <request>
    <method value="POST"/>
    <url value="Encounter/770"/>
  </request>
</entry>
  <entry>
  <resource>
    
    
    <Encounter>
  <id value="771"/>
      <text>
        <status value="generated"/>
        <div xmlns="http://www.w3.org/1999/xhtml">1997-10-27: ambulatory encounter</div>
      </text>
      <status value="finished"/>
      <class value="ambulatory"/>
      <patient>
        <reference value="Patient/1291938"/>
      </patient>
      <period>
       <start value="1997-10-27"/>
       <end value="1997-10-27"/>
      </period>
    </Encounter>
  
  </resource>
  <request>
    <method value="POST"/>
    <url value="Encounter/771"/>
  </request>
</entry>
  <entry>
  <resource>
    
    
    <Encounter>
  <id value="772"/>
      <text>
        <status value="generated"/>
        <div xmlns="http://www.w3.org/1999/xhtml">1997-10-28: ambulatory encounter</div>
      </text>
      <status value="finished"/>
      <class value="ambulatory"/>
      <patient>
        <reference value="Patient/1291938"/>
      </patient>
      <period>
       <start value="1997-10-28"/>
       <end value="1997-10-28"/>
      </period>
    </Encounter>
  
  </resource>
  <request>
    <method value="POST"/>
    <url value="Encounter/772"/>
  </request>
</entry>
  <entry>
  <resource>
    
    
    <Encounter>
  <id value="773"/>
      <text>
        <status value="generated"/>
        <div xmlns="http://www.w3.org/1999/xhtml">1997-10-29: ambulatory encounter</div>
      </text>
      <status value="finished"/>
      <class value="ambulatory"/>
      <patient>
        <reference value="Patient/1291938"/>
      </patient>
      <period>
       <start value="1997-10-29"/>
       <end value="1997-10-29"/>
      </period>
    </Encounter>
  
  </resource>
  <request>
    <method value="POST"/>
    <url value="Encounter/773"/>
  </request>
</entry>
  <entry>
  <resource>
    
    
    <Encounter>
  <id value="774"/>
      <text>
        <status value="generated"/>
        <div xmlns="http://www.w3.org/1999/xhtml">1999-05-27: ambulatory encounter</div>
      </text>
      <status value="finished"/>
      <class value="ambulatory"/>
      <patient>
        <reference value="Patient/1291938"/>
      </patient>
      <period>
       <start value="1999-05-27"/>
       <end value="1999-05-27"/>
      </period>
    </Encounter>
  
  </resource>
  <request>
    <method value="POST"/>
    <url value="Encounter/774"/>
  </request>
</entry>
  <entry>
  <resource>
    
    
    <Encounter>
  <id value="775"/>
      <text>
        <status value="generated"/>
        <div xmlns="http://www.w3.org/1999/xhtml">1999-05-28: ambulatory encounter</div>
      </text>
      <status value="finished"/>
      <class value="ambulatory"/>
      <patient>
        <reference value="Patient/1291938"/>
      </patient>
      <period>
       <start value="1999-05-28"/>
       <end value="1999-05-28"/>
      </period>
    </Encounter>
  
  </resource>
  <request>
    <method value="POST"/>
    <url value="Encounter/775"/>
  </request>
</entry>
  <entry>
  <resource>
    
    
    <Encounter>
  <id value="776"/>
      <text>
        <status value="generated"/>
        <div xmlns="http://www.w3.org/1999/xhtml">1999-06-01: ambulatory encounter</div>
      </text>
      <status value="finished"/>
      <class value="ambulatory"/>
      <patient>
        <reference value="Patient/1291938"/>
      </patient>
      <period>
       <start value="1999-06-01"/>
       <end value="1999-06-01"/>
      </period>
    </Encounter>
  
  </resource>
  <request>
    <method value="POST"/>
    <url value="Encounter/776"/>
  </request>
</entry>
  <entry>
  <resource>
    
    
    <Encounter>
  <id value="777"/>
      <text>
        <status value="generated"/>
        <div xmlns="http://www.w3.org/1999/xhtml">1999-06-03: ambulatory encounter</div>
      </text>
      <status value="finished"/>
      <class value="ambulatory"/>
      <patient>
        <reference value="Patient/1291938"/>
      </patient>
      <period>
       <start value="1999-06-03"/>
       <end value="1999-06-03"/>
      </period>
    </Encounter>
  
  </resource>
  <request>
    <method value="POST"/>
    <url value="Encounter/777"/>
  </request>
</entry>
  <entry>
  <resource>
    
    
    <Encounter>
  <id value="778"/>
      <text>
        <status value="generated"/>
        <div xmlns="http://www.w3.org/1999/xhtml">1999-06-07: ambulatory encounter</div>
      </text>
      <status value="finished"/>
      <class value="ambulatory"/>
      <patient>
        <reference value="Patient/1291938"/>
      </patient>
      <period>
       <start value="1999-06-07"/>
       <end value="1999-06-07"/>
      </period>
    </Encounter>
  
  </resource>
  <request>
    <method value="POST"/>
    <url value="Encounter/778"/>
  </request>
</entry>
  <entry>
  <resource>
    
    
    <Encounter>
  <id value="779"/>
      <text>
        <status value="generated"/>
        <div xmlns="http://www.w3.org/1999/xhtml">1999-06-09: ambulatory encounter</div>
      </text>
      <status value="finished"/>
      <class value="ambulatory"/>
      <patient>
        <reference value="Patient/1291938"/>
      </patient>
      <period>
       <start value="1999-06-09"/>
       <end value="1999-06-09"/>
      </period>
    </Encounter>
  
  </resource>
  <request>
    <method value="POST"/>
    <url value="Encounter/779"/>
  </request>
</entry>
  <entry>
  <resource>
    
    
    <Encounter>
  <id value="780"/>
      <text>
        <status value="generated"/>
        <div xmlns="http://www.w3.org/1999/xhtml">2003-04-09: ambulatory encounter</div>
      </text>
      <status value="finished"/>
      <class value="ambulatory"/>
      <patient>
        <reference value="Patient/1291938"/>
      </patient>
      <period>
       <start value="2003-04-09"/>
       <end value="2003-04-09"/>
      </period>
    </Encounter>
  
  </resource>
  <request>
    <method value="POST"/>
    <url value="Encounter/780"/>
  </request>
</entry>
  <entry>
  <resource>
    
    
    <Encounter>
  <id value="781"/>
      <text>
        <status value="generated"/>
        <div xmlns="http://www.w3.org/1999/xhtml">2003-04-11: ambulatory encounter</div>
      </text>
      <status value="finished"/>
      <class value="ambulatory"/>
      <patient>
        <reference value="Patient/1291938"/>
      </patient>
      <period>
       <start value="2003-04-11"/>
       <end value="2003-04-11"/>
      </period>
    </Encounter>
  
  </resource>
  <request>
    <method value="POST"/>
    <url value="Encounter/781"/>
  </request>
</entry>
  <entry>
  <resource>
    
    
    <Encounter>
  <id value="782"/>
      <text>
        <status value="generated"/>
        <div xmlns="http://www.w3.org/1999/xhtml">2003-04-14: ambulatory encounter</div>
      </text>
      <status value="finished"/>
      <class value="ambulatory"/>
      <patient>
        <reference value="Patient/1291938"/>
      </patient>
      <period>
       <start value="2003-04-14"/>
       <end value="2003-04-14"/>
      </period>
    </Encounter>
  
  </resource>
  <request>
    <method value="POST"/>
    <url value="Encounter/782"/>
  </request>
</entry>
  <entry>
  <resource>
    
    
    <Encounter>
  <id value="783"/>
      <text>
        <status value="generated"/>
        <div xmlns="http://www.w3.org/1999/xhtml">2003-04-15: ambulatory encounter</div>
      </text>
      <status value="finished"/>
      <class value="ambulatory"/>
      <patient>
        <reference value="Patient/1291938"/>
      </patient>
      <period>
       <start value="2003-04-15"/>
       <end value="2003-04-15"/>
      </period>
    </Encounter>
  
  </resource>
  <request>
    <method value="POST"/>
    <url value="Encounter/783"/>
  </request>
</entry>
  <entry>
  <resource>
    
    
    <Encounter>
  <id value="784"/>
      <text>
        <status value="generated"/>
        <div xmlns="http://www.w3.org/1999/xhtml">2006-03-14: ambulatory encounter</div>
      </text>
      <status value="finished"/>
      <class value="ambulatory"/>
      <patient>
        <reference value="Patient/1291938"/>
      </patient>
      <period>
       <start value="2006-03-14"/>
       <end value="2006-03-14"/>
      </period>
    </Encounter>
  
  </resource>
  <request>
    <method value="POST"/>
    <url value="Encounter/784"/>
  </request>
</entry>
  <entry>
  <resource>
    
    
    <Encounter>
  <id value="785"/>
      <text>
        <status value="generated"/>
        <div xmlns="http://www.w3.org/1999/xhtml">2006-03-15: ambulatory encounter</div>
      </text>
      <status value="finished"/>
      <class value="ambulatory"/>
      <patient>
        <reference value="Patient/1291938"/>
      </patient>
      <period>
       <start value="2006-03-15"/>
       <end value="2006-03-15"/>
      </period>
    </Encounter>
  
  </resource>
  <request>
    <method value="POST"/>
    <url value="Encounter/785"/>
  </request>
</entry>
  <entry>
  <resource>
    
    
    <Encounter>
  <id value="786"/>
      <text>
        <status value="generated"/>
        <div xmlns="http://www.w3.org/1999/xhtml">2006-03-16: ambulatory encounter</div>
      </text>
      <status value="finished"/>
      <class value="ambulatory"/>
      <patient>
        <reference value="Patient/1291938"/>
      </patient>
      <period>
       <start value="2006-03-16"/>
       <end value="2006-03-16"/>
      </period>
    </Encounter>
  
  </resource>
  <request>
    <method value="POST"/>
    <url value="Encounter/786"/>
  </request>
</entry>
  <entry>
  <resource>
    
    
  <Observation>
    <id value="766-bp"/>
    <text>
      <status value="generated"/>
      <div xmlns="http://www.w3.org/1999/xhtml">1997-05-17: Blood pressure 133/91 mmHg</div>
    </text>
    <code>
      <coding>
        <system value="http://loinc.org"/>
        <code value="55284-4"/>
        <display value="Blood pressure systolic and diastolic"/>
      </coding>
      <text value="Blood pressure systolic and diastolic"/>
    </code>
    <effectiveDateTime value="1997-05-17"/>
    <status value="final"/>
    <subject>
      <reference value="Patient/1291938"/>
    </subject>
    <encounter>
      <reference value="Encounter/766"/>
    </encounter>
    

    <component>
        <code>
            <coding>
                <system value="http://loinc.org"/>
                <code value="8480-6"/>
                <display value="Systolic blood pressure"/>
            </coding>
            <text value="Systolic blood pressure"/>
        </code>
        <valueQuantity>
            <value value="133"/>
            <unit value="mmHg"/>
            <system value="http://unitsofmeasure.org" />
            <code value="mm[Hg]"/>
        </valueQuantity>
    </component>

    <component>
        <code>
            <coding>
                <system value="http://loinc.org"/>
                <code value="8462-4"/>
                <display value="Diastolic blood pressure"/>
            </coding>
            <text value="Diastolic blood pressure"/>
        </code>
        <valueQuantity>
            <value value="91"/>
            <unit value="mmHg"/>
            <system value="http://unitsofmeasure.org" />
            <code value="mm[Hg]"/>
        </valueQuantity>
    </component>

  </Observation>
  
  </resource>
  <request>
    <method value="POST"/>
    <url value="Observation/766-bp"/>
  </request>
</entry>
<entry>
  <resource>
    
    
  <Observation>
  <id value="766-systolic"/>
    <text>
      <status value="generated"/>
      <div xmlns="http://www.w3.org/1999/xhtml">1997-05-17: Systolic blood pressure = 133 mm[Hg]</div>
    </text>
    <code>
      <coding>
        <system value="http://loinc.org"/>
        <code value="8480-6"/>
        <display value="Systolic blood pressure"/>
      </coding>
      <text value="Systolic blood pressure"/>
    </code>
    <valueQuantity>
      <value value="133.0"/>
      <unit value="mm[Hg]"/>
      <system value="http://unitsofmeasure.org" />
      <code value="mm[Hg]"/>
    </valueQuantity>
    
    <effectiveDateTime value="1997-05-17"/>
    <status value="final"/>
    <subject>
      <reference value="Patient/1291938"/>
    </subject>
  </Observation>
  
  </resource>
  <request>
    <method value="POST"/>
    <url value="Observation/766-systolic"/>
  </request>
</entry>
<entry>
  <resource>
    
    
  <Observation>
  <id value="766-diastolic"/>
    <text>
      <status value="generated"/>
      <div xmlns="http://www.w3.org/1999/xhtml">1997-05-17: Diastolic blood pressure = 91 mm[Hg]</div>
    </text>
    <code>
      <coding>
        <system value="http://loinc.org"/>
        <code value="8462-4"/>
        <display value="Diastolic blood pressure"/>
      </coding>
      <text value="Diastolic blood pressure"/>
    </code>
    <valueQuantity>
      <value value="91.0"/>
      <unit value="mm[Hg]"/>
      <system value="http://unitsofmeasure.org" />
      <code value="mm[Hg]"/>
    </valueQuantity>
    
    <effectiveDateTime value="1997-05-17"/>
    <status value="final"/>
    <subject>
      <reference value="Patient/1291938"/>
    </subject>
  </Observation>
  
  </resource>
  <request>
    <method value="POST"/>
    <url value="Observation/766-diastolic"/>
  </request>
</entry>
  <entry>
  <resource>
    
    
  <Observation>
    <id value="767-bp"/>
    <text>
      <status value="generated"/>
      <div xmlns="http://www.w3.org/1999/xhtml">1997-05-19: Blood pressure 135/77 mmHg</div>
    </text>
    <code>
      <coding>
        <system value="http://loinc.org"/>
        <code value="55284-4"/>
        <display value="Blood pressure systolic and diastolic"/>
      </coding>
      <text value="Blood pressure systolic and diastolic"/>
    </code>
    <effectiveDateTime value="1997-05-19"/>
    <status value="final"/>
    <subject>
      <reference value="Patient/1291938"/>
    </subject>
    <encounter>
      <reference value="Encounter/767"/>
    </encounter>
    

    <component>
        <code>
            <coding>
                <system value="http://loinc.org"/>
                <code value="8480-6"/>
                <display value="Systolic blood pressure"/>
            </coding>
            <text value="Systolic blood pressure"/>
        </code>
        <valueQuantity>
            <value value="135"/>
            <unit value="mmHg"/>
            <system value="http://unitsofmeasure.org" />
            <code value="mm[Hg]"/>
        </valueQuantity>
    </component>

    <component>
        <code>
            <coding>
                <system value="http://loinc.org"/>
                <code value="8462-4"/>
                <display value="Diastolic blood pressure"/>
            </coding>
            <text value="Diastolic blood pressure"/>
        </code>
        <valueQuantity>
            <value value="77"/>
            <unit value="mmHg"/>
            <system value="http://unitsofmeasure.org" />
            <code value="mm[Hg]"/>
        </valueQuantity>
    </component>

  </Observation>
  
  </resource>
  <request>
    <method value="POST"/>
    <url value="Observation/767-bp"/>
  </request>
</entry>
<entry>
  <resource>
    
    
  <Observation>
  <id value="767-systolic"/>
    <text>
      <status value="generated"/>
      <div xmlns="http://www.w3.org/1999/xhtml">1997-05-19: Systolic blood pressure = 135 mm[Hg]</div>
    </text>
    <code>
      <coding>
        <system value="http://loinc.org"/>
        <code value="8480-6"/>
        <display value="Systolic blood pressure"/>
      </coding>
      <text value="Systolic blood pressure"/>
    </code>
    <valueQuantity>
      <value value="135.0"/>
      <unit value="mm[Hg]"/>
      <system value="http://unitsofmeasure.org" />
      <code value="mm[Hg]"/>
    </valueQuantity>
    
    <effectiveDateTime value="1997-05-19"/>
    <status value="final"/>
    <subject>
      <reference value="Patient/1291938"/>
    </subject>
  </Observation>
  
  </resource>
  <request>
    <method value="POST"/>
    <url value="Observation/767-systolic"/>
  </request>
</entry>
<entry>
  <resource>
    
    
  <Observation>
  <id value="767-diastolic"/>
    <text>
      <status value="generated"/>
      <div xmlns="http://www.w3.org/1999/xhtml">1997-05-19: Diastolic blood pressure = 77 mm[Hg]</div>
    </text>
    <code>
      <coding>
        <system value="http://loinc.org"/>
        <code value="8462-4"/>
        <display value="Diastolic blood pressure"/>
      </coding>
      <text value="Diastolic blood pressure"/>
    </code>
    <valueQuantity>
      <value value="77.0"/>
      <unit value="mm[Hg]"/>
      <system value="http://unitsofmeasure.org" />
      <code value="mm[Hg]"/>
    </valueQuantity>
    
    <effectiveDateTime value="1997-05-19"/>
    <status value="final"/>
    <subject>
      <reference value="Patient/1291938"/>
    </subject>
  </Observation>
  
  </resource>
  <request>
    <method value="POST"/>
    <url value="Observation/767-diastolic"/>
  </request>
</entry>
  <entry>
  <resource>
    
    
  <Observation>
    <id value="768-bp"/>
    <text>
      <status value="generated"/>
      <div xmlns="http://www.w3.org/1999/xhtml">1997-06-18: Blood pressure 135/77 mmHg</div>
    </text>
    <code>
      <coding>
        <system value="http://loinc.org"/>
        <code value="55284-4"/>
        <display value="Blood pressure systolic and diastolic"/>
      </coding>
      <text value="Blood pressure systolic and diastolic"/>
    </code>
    <effectiveDateTime value="1997-06-18"/>
    <status value="final"/>
    <subject>
      <reference value="Patient/1291938"/>
    </subject>
    <encounter>
      <reference value="Encounter/768"/>
    </encounter>
    

    <component>
        <code>
            <coding>
                <system value="http://loinc.org"/>
                <code value="8480-6"/>
                <display value="Systolic blood pressure"/>
            </coding>
            <text value="Systolic blood pressure"/>
        </code>
        <valueQuantity>
            <value value="135"/>
            <unit value="mmHg"/>
            <system value="http://unitsofmeasure.org" />
            <code value="mm[Hg]"/>
        </valueQuantity>
    </component>

    <component>
        <code>
            <coding>
                <system value="http://loinc.org"/>
                <code value="8462-4"/>
                <display value="Diastolic blood pressure"/>
            </coding>
            <text value="Diastolic blood pressure"/>
        </code>
        <valueQuantity>
            <value value="77"/>
            <unit value="mmHg"/>
            <system value="http://unitsofmeasure.org" />
            <code value="mm[Hg]"/>
        </valueQuantity>
    </component>

  </Observation>
  
  </resource>
  <request>
    <method value="POST"/>
    <url value="Observation/768-bp"/>
  </request>
</entry>
<entry>
  <resource>
    
    
  <Observation>
  <id value="768-systolic"/>
    <text>
      <status value="generated"/>
      <div xmlns="http://www.w3.org/1999/xhtml">1997-06-18: Systolic blood pressure = 135 mm[Hg]</div>
    </text>
    <code>
      <coding>
        <system value="http://loinc.org"/>
        <code value="8480-6"/>
        <display value="Systolic blood pressure"/>
      </coding>
      <text value="Systolic blood pressure"/>
    </code>
    <valueQuantity>
      <value value="135.0"/>
      <unit value="mm[Hg]"/>
      <system value="http://unitsofmeasure.org" />
      <code value="mm[Hg]"/>
    </valueQuantity>
    
    <effectiveDateTime value="1997-06-18"/>
    <status value="final"/>
    <subject>
      <reference value="Patient/1291938"/>
    </subject>
  </Observation>
  
  </resource>
  <request>
    <method value="POST"/>
    <url value="Observation/768-systolic"/>
  </request>
</entry>
<entry>
  <resource>
    
    
  <Observation>
  <id value="768-diastolic"/>
    <text>
      <status value="generated"/>
      <div xmlns="http://www.w3.org/1999/xhtml">1997-06-18: Diastolic blood pressure = 77 mm[Hg]</div>
    </text>
    <code>
      <coding>
        <system value="http://loinc.org"/>
        <code value="8462-4"/>
        <display value="Diastolic blood pressure"/>
      </coding>
      <text value="Diastolic blood pressure"/>
    </code>
    <valueQuantity>
      <value value="77.0"/>
      <unit value="mm[Hg]"/>
      <system value="http://unitsofmeasure.org" />
      <code value="mm[Hg]"/>
    </valueQuantity>
    
    <effectiveDateTime value="1997-06-18"/>
    <status value="final"/>
    <subject>
      <reference value="Patient/1291938"/>
    </subject>
  </Observation>
  
  </resource>
  <request>
    <method value="POST"/>
    <url value="Observation/768-diastolic"/>
  </request>
</entry>
  <entry>
  <resource>
    
    
  <Observation>
    <id value="769-bp"/>
    <text>
      <status value="generated"/>
      <div xmlns="http://www.w3.org/1999/xhtml">1997-06-19: Blood pressure 135/77 mmHg</div>
    </text>
    <code>
      <coding>
        <system value="http://loinc.org"/>
        <code value="55284-4"/>
        <display value="Blood pressure systolic and diastolic"/>
      </coding>
      <text value="Blood pressure systolic and diastolic"/>
    </code>
    <effectiveDateTime value="1997-06-19"/>
    <status value="final"/>
    <subject>
      <reference value="Patient/1291938"/>
    </subject>
    <encounter>
      <reference value="Encounter/769"/>
    </encounter>
    

    <component>
        <code>
            <coding>
                <system value="http://loinc.org"/>
                <code value="8480-6"/>
                <display value="Systolic blood pressure"/>
            </coding>
            <text value="Systolic blood pressure"/>
        </code>
        <valueQuantity>
            <value value="135"/>
            <unit value="mmHg"/>
            <system value="http://unitsofmeasure.org" />
            <code value="mm[Hg]"/>
        </valueQuantity>
    </component>

    <component>
        <code>
            <coding>
                <system value="http://loinc.org"/>
                <code value="8462-4"/>
                <display value="Diastolic blood pressure"/>
            </coding>
            <text value="Diastolic blood pressure"/>
        </code>
        <valueQuantity>
            <value value="77"/>
            <unit value="mmHg"/>
            <system value="http://unitsofmeasure.org" />
            <code value="mm[Hg]"/>
        </valueQuantity>
    </component>

  </Observation>
  
  </resource>
  <request>
    <method value="POST"/>
    <url value="Observation/769-bp"/>
  </request>
</entry>
<entry>
  <resource>
    
    
  <Observation>
  <id value="769-systolic"/>
    <text>
      <status value="generated"/>
      <div xmlns="http://www.w3.org/1999/xhtml">1997-06-19: Systolic blood pressure = 135 mm[Hg]</div>
    </text>
    <code>
      <coding>
        <system value="http://loinc.org"/>
        <code value="8480-6"/>
        <display value="Systolic blood pressure"/>
      </coding>
      <text value="Systolic blood pressure"/>
    </code>
    <valueQuantity>
      <value value="135.0"/>
      <unit value="mm[Hg]"/>
      <system value="http://unitsofmeasure.org" />
      <code value="mm[Hg]"/>
    </valueQuantity>
    
    <effectiveDateTime value="1997-06-19"/>
    <status value="final"/>
    <subject>
      <reference value="Patient/1291938"/>
    </subject>
  </Observation>
  
  </resource>
  <request>
    <method value="POST"/>
    <url value="Observation/769-systolic"/>
  </request>
</entry>
<entry>
  <resource>
    
    
  <Observation>
  <id value="769-diastolic"/>
    <text>
      <status value="generated"/>
      <div xmlns="http://www.w3.org/1999/xhtml">1997-06-19: Diastolic blood pressure = 77 mm[Hg]</div>
    </text>
    <code>
      <coding>
        <system value="http://loinc.org"/>
        <code value="8462-4"/>
        <display value="Diastolic blood pressure"/>
      </coding>
      <text value="Diastolic blood pressure"/>
    </code>
    <valueQuantity>
      <value value="77.0"/>
      <unit value="mm[Hg]"/>
      <system value="http://unitsofmeasure.org" />
      <code value="mm[Hg]"/>
    </valueQuantity>
    
    <effectiveDateTime value="1997-06-19"/>
    <status value="final"/>
    <subject>
      <reference value="Patient/1291938"/>
    </subject>
  </Observation>
  
  </resource>
  <request>
    <method value="POST"/>
    <url value="Observation/769-diastolic"/>
  </request>
</entry>
  <entry>
  <resource>
    
    
  <Observation>
    <id value="770-bp"/>
    <text>
      <status value="generated"/>
      <div xmlns="http://www.w3.org/1999/xhtml">1997-06-20: Blood pressure 131/75 mmHg</div>
    </text>
    <code>
      <coding>
        <system value="http://loinc.org"/>
        <code value="55284-4"/>
        <display value="Blood pressure systolic and diastolic"/>
      </coding>
      <text value="Blood pressure systolic and diastolic"/>
    </code>
    <effectiveDateTime value="1997-06-20"/>
    <status value="final"/>
    <subject>
      <reference value="Patient/1291938"/>
    </subject>
    <encounter>
      <reference value="Encounter/770"/>
    </encounter>
    

    <component>
        <code>
            <coding>
                <system value="http://loinc.org"/>
                <code value="8480-6"/>
                <display value="Systolic blood pressure"/>
            </coding>
            <text value="Systolic blood pressure"/>
        </code>
        <valueQuantity>
            <value value="131"/>
            <unit value="mmHg"/>
            <system value="http://unitsofmeasure.org" />
            <code value="mm[Hg]"/>
        </valueQuantity>
    </component>

    <component>
        <code>
            <coding>
                <system value="http://loinc.org"/>
                <code value="8462-4"/>
                <display value="Diastolic blood pressure"/>
            </coding>
            <text value="Diastolic blood pressure"/>
        </code>
        <valueQuantity>
            <value value="75"/>
            <unit value="mmHg"/>
            <system value="http://unitsofmeasure.org" />
            <code value="mm[Hg]"/>
        </valueQuantity>
    </component>

  </Observation>
  
  </resource>
  <request>
    <method value="POST"/>
    <url value="Observation/770-bp"/>
  </request>
</entry>
<entry>
  <resource>
    
    
  <Observation>
  <id value="770-systolic"/>
    <text>
      <status value="generated"/>
      <div xmlns="http://www.w3.org/1999/xhtml">1997-06-20: Systolic blood pressure = 131 mm[Hg]</div>
    </text>
    <code>
      <coding>
        <system value="http://loinc.org"/>
        <code value="8480-6"/>
        <display value="Systolic blood pressure"/>
      </coding>
      <text value="Systolic blood pressure"/>
    </code>
    <valueQuantity>
      <value value="131.0"/>
      <unit value="mm[Hg]"/>
      <system value="http://unitsofmeasure.org" />
      <code value="mm[Hg]"/>
    </valueQuantity>
    
    <effectiveDateTime value="1997-06-20"/>
    <status value="final"/>
    <subject>
      <reference value="Patient/1291938"/>
    </subject>
  </Observation>
  
  </resource>
  <request>
    <method value="POST"/>
    <url value="Observation/770-systolic"/>
  </request>
</entry>
<entry>
  <resource>
    
    
  <Observation>
  <id value="770-diastolic"/>
    <text>
      <status value="generated"/>
      <div xmlns="http://www.w3.org/1999/xhtml">1997-06-20: Diastolic blood pressure = 75 mm[Hg]</div>
    </text>
    <code>
      <coding>
        <system value="http://loinc.org"/>
        <code value="8462-4"/>
        <display value="Diastolic blood pressure"/>
      </coding>
      <text value="Diastolic blood pressure"/>
    </code>
    <valueQuantity>
      <value value="75.0"/>
      <unit value="mm[Hg]"/>
      <system value="http://unitsofmeasure.org" />
      <code value="mm[Hg]"/>
    </valueQuantity>
    
    <effectiveDateTime value="1997-06-20"/>
    <status value="final"/>
    <subject>
      <reference value="Patient/1291938"/>
    </subject>
  </Observation>
  
  </resource>
  <request>
    <method value="POST"/>
    <url value="Observation/770-diastolic"/>
  </request>
</entry>
  <entry>
  <resource>
    
    
  <Observation>
    <id value="771-bp"/>
    <text>
      <status value="generated"/>
      <div xmlns="http://www.w3.org/1999/xhtml">1997-10-27: Blood pressure 133/76 mmHg</div>
    </text>
    <code>
      <coding>
        <system value="http://loinc.org"/>
        <code value="55284-4"/>
        <display value="Blood pressure systolic and diastolic"/>
      </coding>
      <text value="Blood pressure systolic and diastolic"/>
    </code>
    <effectiveDateTime value="1997-10-27"/>
    <status value="final"/>
    <subject>
      <reference value="Patient/1291938"/>
    </subject>
    <encounter>
      <reference value="Encounter/771"/>
    </encounter>
    

    <component>
        <code>
            <coding>
                <system value="http://loinc.org"/>
                <code value="8480-6"/>
                <display value="Systolic blood pressure"/>
            </coding>
            <text value="Systolic blood pressure"/>
        </code>
        <valueQuantity>
            <value value="133"/>
            <unit value="mmHg"/>
            <system value="http://unitsofmeasure.org" />
            <code value="mm[Hg]"/>
        </valueQuantity>
    </component>

    <component>
        <code>
            <coding>
                <system value="http://loinc.org"/>
                <code value="8462-4"/>
                <display value="Diastolic blood pressure"/>
            </coding>
            <text value="Diastolic blood pressure"/>
        </code>
        <valueQuantity>
            <value value="76"/>
            <unit value="mmHg"/>
            <system value="http://unitsofmeasure.org" />
            <code value="mm[Hg]"/>
        </valueQuantity>
    </component>

  </Observation>
  
  </resource>
  <request>
    <method value="POST"/>
    <url value="Observation/771-bp"/>
  </request>
</entry>
<entry>
  <resource>
    
    
  <Observation>
  <id value="771-systolic"/>
    <text>
      <status value="generated"/>
      <div xmlns="http://www.w3.org/1999/xhtml">1997-10-27: Systolic blood pressure = 133 mm[Hg]</div>
    </text>
    <code>
      <coding>
        <system value="http://loinc.org"/>
        <code value="8480-6"/>
        <display value="Systolic blood pressure"/>
      </coding>
      <text value="Systolic blood pressure"/>
    </code>
    <valueQuantity>
      <value value="133.0"/>
      <unit value="mm[Hg]"/>
      <system value="http://unitsofmeasure.org" />
      <code value="mm[Hg]"/>
    </valueQuantity>
    
    <effectiveDateTime value="1997-10-27"/>
    <status value="final"/>
    <subject>
      <reference value="Patient/1291938"/>
    </subject>
  </Observation>
  
  </resource>
  <request>
    <method value="POST"/>
    <url value="Observation/771-systolic"/>
  </request>
</entry>
<entry>
  <resource>
    
    
  <Observation>
  <id value="771-diastolic"/>
    <text>
      <status value="generated"/>
      <div xmlns="http://www.w3.org/1999/xhtml">1997-10-27: Diastolic blood pressure = 76 mm[Hg]</div>
    </text>
    <code>
      <coding>
        <system value="http://loinc.org"/>
        <code value="8462-4"/>
        <display value="Diastolic blood pressure"/>
      </coding>
      <text value="Diastolic blood pressure"/>
    </code>
    <valueQuantity>
      <value value="76.0"/>
      <unit value="mm[Hg]"/>
      <system value="http://unitsofmeasure.org" />
      <code value="mm[Hg]"/>
    </valueQuantity>
    
    <effectiveDateTime value="1997-10-27"/>
    <status value="final"/>
    <subject>
      <reference value="Patient/1291938"/>
    </subject>
  </Observation>
  
  </resource>
  <request>
    <method value="POST"/>
    <url value="Observation/771-diastolic"/>
  </request>
</entry>
  <entry>
  <resource>
    
    
  <Observation>
    <id value="772-bp"/>
    <text>
      <status value="generated"/>
      <div xmlns="http://www.w3.org/1999/xhtml">1997-10-28: Blood pressure 133/76 mmHg</div>
    </text>
    <code>
      <coding>
        <system value="http://loinc.org"/>
        <code value="55284-4"/>
        <display value="Blood pressure systolic and diastolic"/>
      </coding>
      <text value="Blood pressure systolic and diastolic"/>
    </code>
    <effectiveDateTime value="1997-10-28"/>
    <status value="final"/>
    <subject>
      <reference value="Patient/1291938"/>
    </subject>
    <encounter>
      <reference value="Encounter/772"/>
    </encounter>
    

    <component>
        <code>
            <coding>
                <system value="http://loinc.org"/>
                <code value="8480-6"/>
                <display value="Systolic blood pressure"/>
            </coding>
            <text value="Systolic blood pressure"/>
        </code>
        <valueQuantity>
            <value value="133"/>
            <unit value="mmHg"/>
            <system value="http://unitsofmeasure.org" />
            <code value="mm[Hg]"/>
        </valueQuantity>
    </component>

    <component>
        <code>
            <coding>
                <system value="http://loinc.org"/>
                <code value="8462-4"/>
                <display value="Diastolic blood pressure"/>
            </coding>
            <text value="Diastolic blood pressure"/>
        </code>
        <valueQuantity>
            <value value="76"/>
            <unit value="mmHg"/>
            <system value="http://unitsofmeasure.org" />
            <code value="mm[Hg]"/>
        </valueQuantity>
    </component>

  </Observation>
  
  </resource>
  <request>
    <method value="POST"/>
    <url value="Observation/772-bp"/>
  </request>
</entry>
<entry>
  <resource>
    
    
  <Observation>
  <id value="772-systolic"/>
    <text>
      <status value="generated"/>
      <div xmlns="http://www.w3.org/1999/xhtml">1997-10-28: Systolic blood pressure = 133 mm[Hg]</div>
    </text>
    <code>
      <coding>
        <system value="http://loinc.org"/>
        <code value="8480-6"/>
        <display value="Systolic blood pressure"/>
      </coding>
      <text value="Systolic blood pressure"/>
    </code>
    <valueQuantity>
      <value value="133.0"/>
      <unit value="mm[Hg]"/>
      <system value="http://unitsofmeasure.org" />
      <code value="mm[Hg]"/>
    </valueQuantity>
    
    <effectiveDateTime value="1997-10-28"/>
    <status value="final"/>
    <subject>
      <reference value="Patient/1291938"/>
    </subject>
  </Observation>
  
  </resource>
  <request>
    <method value="POST"/>
    <url value="Observation/772-systolic"/>
  </request>
</entry>
<entry>
  <resource>
    
    
  <Observation>
  <id value="772-diastolic"/>
    <text>
      <status value="generated"/>
      <div xmlns="http://www.w3.org/1999/xhtml">1997-10-28: Diastolic blood pressure = 76 mm[Hg]</div>
    </text>
    <code>
      <coding>
        <system value="http://loinc.org"/>
        <code value="8462-4"/>
        <display value="Diastolic blood pressure"/>
      </coding>
      <text value="Diastolic blood pressure"/>
    </code>
    <valueQuantity>
      <value value="76.0"/>
      <unit value="mm[Hg]"/>
      <system value="http://unitsofmeasure.org" />
      <code value="mm[Hg]"/>
    </valueQuantity>
    
    <effectiveDateTime value="1997-10-28"/>
    <status value="final"/>
    <subject>
      <reference value="Patient/1291938"/>
    </subject>
  </Observation>
  
  </resource>
  <request>
    <method value="POST"/>
    <url value="Observation/772-diastolic"/>
  </request>
</entry>
  <entry>
  <resource>
    
    
  <Observation>
    <id value="773-bp"/>
    <text>
      <status value="generated"/>
      <div xmlns="http://www.w3.org/1999/xhtml">1997-10-29: Blood pressure 133/76 mmHg</div>
    </text>
    <code>
      <coding>
        <system value="http://loinc.org"/>
        <code value="55284-4"/>
        <display value="Blood pressure systolic and diastolic"/>
      </coding>
      <text value="Blood pressure systolic and diastolic"/>
    </code>
    <effectiveDateTime value="1997-10-29"/>
    <status value="final"/>
    <subject>
      <reference value="Patient/1291938"/>
    </subject>
    <encounter>
      <reference value="Encounter/773"/>
    </encounter>
    

    <component>
        <code>
            <coding>
                <system value="http://loinc.org"/>
                <code value="8480-6"/>
                <display value="Systolic blood pressure"/>
            </coding>
            <text value="Systolic blood pressure"/>
        </code>
        <valueQuantity>
            <value value="133"/>
            <unit value="mmHg"/>
            <system value="http://unitsofmeasure.org" />
            <code value="mm[Hg]"/>
        </valueQuantity>
    </component>

    <component>
        <code>
            <coding>
                <system value="http://loinc.org"/>
                <code value="8462-4"/>
                <display value="Diastolic blood pressure"/>
            </coding>
            <text value="Diastolic blood pressure"/>
        </code>
        <valueQuantity>
            <value value="76"/>
            <unit value="mmHg"/>
            <system value="http://unitsofmeasure.org" />
            <code value="mm[Hg]"/>
        </valueQuantity>
    </component>

  </Observation>
  
  </resource>
  <request>
    <method value="POST"/>
    <url value="Observation/773-bp"/>
  </request>
</entry>
<entry>
  <resource>
    
    
  <Observation>
  <id value="773-systolic"/>
    <text>
      <status value="generated"/>
      <div xmlns="http://www.w3.org/1999/xhtml">1997-10-29: Systolic blood pressure = 133 mm[Hg]</div>
    </text>
    <code>
      <coding>
        <system value="http://loinc.org"/>
        <code value="8480-6"/>
        <display value="Systolic blood pressure"/>
      </coding>
      <text value="Systolic blood pressure"/>
    </code>
    <valueQuantity>
      <value value="133.0"/>
      <unit value="mm[Hg]"/>
      <system value="http://unitsofmeasure.org" />
      <code value="mm[Hg]"/>
    </valueQuantity>
    
    <effectiveDateTime value="1997-10-29"/>
    <status value="final"/>
    <subject>
      <reference value="Patient/1291938"/>
    </subject>
  </Observation>
  
  </resource>
  <request>
    <method value="POST"/>
    <url value="Observation/773-systolic"/>
  </request>
</entry>
<entry>
  <resource>
    
    
  <Observation>
  <id value="773-diastolic"/>
    <text>
      <status value="generated"/>
      <div xmlns="http://www.w3.org/1999/xhtml">1997-10-29: Diastolic blood pressure = 76 mm[Hg]</div>
    </text>
    <code>
      <coding>
        <system value="http://loinc.org"/>
        <code value="8462-4"/>
        <display value="Diastolic blood pressure"/>
      </coding>
      <text value="Diastolic blood pressure"/>
    </code>
    <valueQuantity>
      <value value="76.0"/>
      <unit value="mm[Hg]"/>
      <system value="http://unitsofmeasure.org" />
      <code value="mm[Hg]"/>
    </valueQuantity>
    
    <effectiveDateTime value="1997-10-29"/>
    <status value="final"/>
    <subject>
      <reference value="Patient/1291938"/>
    </subject>
  </Observation>
  
  </resource>
  <request>
    <method value="POST"/>
    <url value="Observation/773-diastolic"/>
  </request>
</entry>
  <entry>
  <resource>
    
    
  <Observation>
    <id value="774-bp"/>
    <text>
      <status value="generated"/>
      <div xmlns="http://www.w3.org/1999/xhtml">1999-05-27: Blood pressure 133/75 mmHg</div>
    </text>
    <code>
      <coding>
        <system value="http://loinc.org"/>
        <code value="55284-4"/>
        <display value="Blood pressure systolic and diastolic"/>
      </coding>
      <text value="Blood pressure systolic and diastolic"/>
    </code>
    <effectiveDateTime value="1999-05-27"/>
    <status value="final"/>
    <subject>
      <reference value="Patient/1291938"/>
    </subject>
    <encounter>
      <reference value="Encounter/774"/>
    </encounter>
    

    <component>
        <code>
            <coding>
                <system value="http://loinc.org"/>
                <code value="8480-6"/>
                <display value="Systolic blood pressure"/>
            </coding>
            <text value="Systolic blood pressure"/>
        </code>
        <valueQuantity>
            <value value="133"/>
            <unit value="mmHg"/>
            <system value="http://unitsofmeasure.org" />
            <code value="mm[Hg]"/>
        </valueQuantity>
    </component>

    <component>
        <code>
            <coding>
                <system value="http://loinc.org"/>
                <code value="8462-4"/>
                <display value="Diastolic blood pressure"/>
            </coding>
            <text value="Diastolic blood pressure"/>
        </code>
        <valueQuantity>
            <value value="75"/>
            <unit value="mmHg"/>
            <system value="http://unitsofmeasure.org" />
            <code value="mm[Hg]"/>
        </valueQuantity>
    </component>

  </Observation>
  
  </resource>
  <request>
    <method value="POST"/>
    <url value="Observation/774-bp"/>
  </request>
</entry>
<entry>
  <resource>
    
    
  <Observation>
  <id value="774-systolic"/>
    <text>
      <status value="generated"/>
      <div xmlns="http://www.w3.org/1999/xhtml">1999-05-27: Systolic blood pressure = 133 mm[Hg]</div>
    </text>
    <code>
      <coding>
        <system value="http://loinc.org"/>
        <code value="8480-6"/>
        <display value="Systolic blood pressure"/>
      </coding>
      <text value="Systolic blood pressure"/>
    </code>
    <valueQuantity>
      <value value="133.0"/>
      <unit value="mm[Hg]"/>
      <system value="http://unitsofmeasure.org" />
      <code value="mm[Hg]"/>
    </valueQuantity>
    
    <effectiveDateTime value="1999-05-27"/>
    <status value="final"/>
    <subject>
      <reference value="Patient/1291938"/>
    </subject>
  </Observation>
  
  </resource>
  <request>
    <method value="POST"/>
    <url value="Observation/774-systolic"/>
  </request>
</entry>
<entry>
  <resource>
    
    
  <Observation>
  <id value="774-diastolic"/>
    <text>
      <status value="generated"/>
      <div xmlns="http://www.w3.org/1999/xhtml">1999-05-27: Diastolic blood pressure = 75 mm[Hg]</div>
    </text>
    <code>
      <coding>
        <system value="http://loinc.org"/>
        <code value="8462-4"/>
        <display value="Diastolic blood pressure"/>
      </coding>
      <text value="Diastolic blood pressure"/>
    </code>
    <valueQuantity>
      <value value="75.0"/>
      <unit value="mm[Hg]"/>
      <system value="http://unitsofmeasure.org" />
      <code value="mm[Hg]"/>
    </valueQuantity>
    
    <effectiveDateTime value="1999-05-27"/>
    <status value="final"/>
    <subject>
      <reference value="Patient/1291938"/>
    </subject>
  </Observation>
  
  </resource>
  <request>
    <method value="POST"/>
    <url value="Observation/774-diastolic"/>
  </request>
</entry>
  <entry>
  <resource>
    
    
  <Observation>
    <id value="775-bp"/>
    <text>
      <status value="generated"/>
      <div xmlns="http://www.w3.org/1999/xhtml">1999-05-28: Blood pressure 135/76 mmHg</div>
    </text>
    <code>
      <coding>
        <system value="http://loinc.org"/>
        <code value="55284-4"/>
        <display value="Blood pressure systolic and diastolic"/>
      </coding>
      <text value="Blood pressure systolic and diastolic"/>
    </code>
    <effectiveDateTime value="1999-05-28"/>
    <status value="final"/>
    <subject>
      <reference value="Patient/1291938"/>
    </subject>
    <encounter>
      <reference value="Encounter/775"/>
    </encounter>
    

    <component>
        <code>
            <coding>
                <system value="http://loinc.org"/>
                <code value="8480-6"/>
                <display value="Systolic blood pressure"/>
            </coding>
            <text value="Systolic blood pressure"/>
        </code>
        <valueQuantity>
            <value value="135"/>
            <unit value="mmHg"/>
            <system value="http://unitsofmeasure.org" />
            <code value="mm[Hg]"/>
        </valueQuantity>
    </component>

    <component>
        <code>
            <coding>
                <system value="http://loinc.org"/>
                <code value="8462-4"/>
                <display value="Diastolic blood pressure"/>
            </coding>
            <text value="Diastolic blood pressure"/>
        </code>
        <valueQuantity>
            <value value="76"/>
            <unit value="mmHg"/>
            <system value="http://unitsofmeasure.org" />
            <code value="mm[Hg]"/>
        </valueQuantity>
    </component>

  </Observation>
  
  </resource>
  <request>
    <method value="POST"/>
    <url value="Observation/775-bp"/>
  </request>
</entry>
<entry>
  <resource>
    
    
  <Observation>
  <id value="775-systolic"/>
    <text>
      <status value="generated"/>
      <div xmlns="http://www.w3.org/1999/xhtml">1999-05-28: Systolic blood pressure = 135 mm[Hg]</div>
    </text>
    <code>
      <coding>
        <system value="http://loinc.org"/>
        <code value="8480-6"/>
        <display value="Systolic blood pressure"/>
      </coding>
      <text value="Systolic blood pressure"/>
    </code>
    <valueQuantity>
      <value value="135.0"/>
      <unit value="mm[Hg]"/>
      <system value="http://unitsofmeasure.org" />
      <code value="mm[Hg]"/>
    </valueQuantity>
    
    <effectiveDateTime value="1999-05-28"/>
    <status value="final"/>
    <subject>
      <reference value="Patient/1291938"/>
    </subject>
  </Observation>
  
  </resource>
  <request>
    <method value="POST"/>
    <url value="Observation/775-systolic"/>
  </request>
</entry>
<entry>
  <resource>
    
    
  <Observation>
  <id value="775-diastolic"/>
    <text>
      <status value="generated"/>
      <div xmlns="http://www.w3.org/1999/xhtml">1999-05-28: Diastolic blood pressure = 76 mm[Hg]</div>
    </text>
    <code>
      <coding>
        <system value="http://loinc.org"/>
        <code value="8462-4"/>
        <display value="Diastolic blood pressure"/>
      </coding>
      <text value="Diastolic blood pressure"/>
    </code>
    <valueQuantity>
      <value value="76.0"/>
      <unit value="mm[Hg]"/>
      <system value="http://unitsofmeasure.org" />
      <code value="mm[Hg]"/>
    </valueQuantity>
    
    <effectiveDateTime value="1999-05-28"/>
    <status value="final"/>
    <subject>
      <reference value="Patient/1291938"/>
    </subject>
  </Observation>
  
  </resource>
  <request>
    <method value="POST"/>
    <url value="Observation/775-diastolic"/>
  </request>
</entry>
  <entry>
  <resource>
    
    
  <Observation>
    <id value="776-bp"/>
    <text>
      <status value="generated"/>
      <div xmlns="http://www.w3.org/1999/xhtml">1999-06-01: Blood pressure 135/76 mmHg</div>
    </text>
    <code>
      <coding>
        <system value="http://loinc.org"/>
        <code value="55284-4"/>
        <display value="Blood pressure systolic and diastolic"/>
      </coding>
      <text value="Blood pressure systolic and diastolic"/>
    </code>
    <effectiveDateTime value="1999-06-01"/>
    <status value="final"/>
    <subject>
      <reference value="Patient/1291938"/>
    </subject>
    <encounter>
      <reference value="Encounter/776"/>
    </encounter>
    

    <component>
        <code>
            <coding>
                <system value="http://loinc.org"/>
                <code value="8480-6"/>
                <display value="Systolic blood pressure"/>
            </coding>
            <text value="Systolic blood pressure"/>
        </code>
        <valueQuantity>
            <value value="135"/>
            <unit value="mmHg"/>
            <system value="http://unitsofmeasure.org" />
            <code value="mm[Hg]"/>
        </valueQuantity>
    </component>

    <component>
        <code>
            <coding>
                <system value="http://loinc.org"/>
                <code value="8462-4"/>
                <display value="Diastolic blood pressure"/>
            </coding>
            <text value="Diastolic blood pressure"/>
        </code>
        <valueQuantity>
            <value value="76"/>
            <unit value="mmHg"/>
            <system value="http://unitsofmeasure.org" />
            <code value="mm[Hg]"/>
        </valueQuantity>
    </component>

  </Observation>
  
  </resource>
  <request>
    <method value="POST"/>
    <url value="Observation/776-bp"/>
  </request>
</entry>
<entry>
  <resource>
    
    
  <Observation>
  <id value="776-systolic"/>
    <text>
      <status value="generated"/>
      <div xmlns="http://www.w3.org/1999/xhtml">1999-06-01: Systolic blood pressure = 135 mm[Hg]</div>
    </text>
    <code>
      <coding>
        <system value="http://loinc.org"/>
        <code value="8480-6"/>
        <display value="Systolic blood pressure"/>
      </coding>
      <text value="Systolic blood pressure"/>
    </code>
    <valueQuantity>
      <value value="135.0"/>
      <unit value="mm[Hg]"/>
      <system value="http://unitsofmeasure.org" />
      <code value="mm[Hg]"/>
    </valueQuantity>
    
    <effectiveDateTime value="1999-06-01"/>
    <status value="final"/>
    <subject>
      <reference value="Patient/1291938"/>
    </subject>
  </Observation>
  
  </resource>
  <request>
    <method value="POST"/>
    <url value="Observation/776-systolic"/>
  </request>
</entry>
<entry>
  <resource>
    
    
  <Observation>
  <id value="776-diastolic"/>
    <text>
      <status value="generated"/>
      <div xmlns="http://www.w3.org/1999/xhtml">1999-06-01: Diastolic blood pressure = 76 mm[Hg]</div>
    </text>
    <code>
      <coding>
        <system value="http://loinc.org"/>
        <code value="8462-4"/>
        <display value="Diastolic blood pressure"/>
      </coding>
      <text value="Diastolic blood pressure"/>
    </code>
    <valueQuantity>
      <value value="76.0"/>
      <unit value="mm[Hg]"/>
      <system value="http://unitsofmeasure.org" />
      <code value="mm[Hg]"/>
    </valueQuantity>
    
    <effectiveDateTime value="1999-06-01"/>
    <status value="final"/>
    <subject>
      <reference value="Patient/1291938"/>
    </subject>
  </Observation>
  
  </resource>
  <request>
    <method value="POST"/>
    <url value="Observation/776-diastolic"/>
  </request>
</entry>
  <entry>
  <resource>
    
    
  <Observation>
    <id value="777-bp"/>
    <text>
      <status value="generated"/>
      <div xmlns="http://www.w3.org/1999/xhtml">1999-06-03: Blood pressure 136/77 mmHg</div>
    </text>
    <code>
      <coding>
        <system value="http://loinc.org"/>
        <code value="55284-4"/>
        <display value="Blood pressure systolic and diastolic"/>
      </coding>
      <text value="Blood pressure systolic and diastolic"/>
    </code>
    <effectiveDateTime value="1999-06-03"/>
    <status value="final"/>
    <subject>
      <reference value="Patient/1291938"/>
    </subject>
    <encounter>
      <reference value="Encounter/777"/>
    </encounter>
    

    <component>
        <code>
            <coding>
                <system value="http://loinc.org"/>
                <code value="8480-6"/>
                <display value="Systolic blood pressure"/>
            </coding>
            <text value="Systolic blood pressure"/>
        </code>
        <valueQuantity>
            <value value="136"/>
            <unit value="mmHg"/>
            <system value="http://unitsofmeasure.org" />
            <code value="mm[Hg]"/>
        </valueQuantity>
    </component>

    <component>
        <code>
            <coding>
                <system value="http://loinc.org"/>
                <code value="8462-4"/>
                <display value="Diastolic blood pressure"/>
            </coding>
            <text value="Diastolic blood pressure"/>
        </code>
        <valueQuantity>
            <value value="77"/>
            <unit value="mmHg"/>
            <system value="http://unitsofmeasure.org" />
            <code value="mm[Hg]"/>
        </valueQuantity>
    </component>

  </Observation>
  
  </resource>
  <request>
    <method value="POST"/>
    <url value="Observation/777-bp"/>
  </request>
</entry>
<entry>
  <resource>
    
    
  <Observation>
  <id value="777-systolic"/>
    <text>
      <status value="generated"/>
      <div xmlns="http://www.w3.org/1999/xhtml">1999-06-03: Systolic blood pressure = 136 mm[Hg]</div>
    </text>
    <code>
      <coding>
        <system value="http://loinc.org"/>
        <code value="8480-6"/>
        <display value="Systolic blood pressure"/>
      </coding>
      <text value="Systolic blood pressure"/>
    </code>
    <valueQuantity>
      <value value="136.0"/>
      <unit value="mm[Hg]"/>
      <system value="http://unitsofmeasure.org" />
      <code value="mm[Hg]"/>
    </valueQuantity>
    
    <effectiveDateTime value="1999-06-03"/>
    <status value="final"/>
    <subject>
      <reference value="Patient/1291938"/>
    </subject>
  </Observation>
  
  </resource>
  <request>
    <method value="POST"/>
    <url value="Observation/777-systolic"/>
  </request>
</entry>
<entry>
  <resource>
    
    
  <Observation>
  <id value="777-diastolic"/>
    <text>
      <status value="generated"/>
      <div xmlns="http://www.w3.org/1999/xhtml">1999-06-03: Diastolic blood pressure = 77 mm[Hg]</div>
    </text>
    <code>
      <coding>
        <system value="http://loinc.org"/>
        <code value="8462-4"/>
        <display value="Diastolic blood pressure"/>
      </coding>
      <text value="Diastolic blood pressure"/>
    </code>
    <valueQuantity>
      <value value="77.0"/>
      <unit value="mm[Hg]"/>
      <system value="http://unitsofmeasure.org" />
      <code value="mm[Hg]"/>
    </valueQuantity>
    
    <effectiveDateTime value="1999-06-03"/>
    <status value="final"/>
    <subject>
      <reference value="Patient/1291938"/>
    </subject>
  </Observation>
  
  </resource>
  <request>
    <method value="POST"/>
    <url value="Observation/777-diastolic"/>
  </request>
</entry>
  <entry>
  <resource>
    
    
  <Observation>
    <id value="778-bp"/>
    <text>
      <status value="generated"/>
      <div xmlns="http://www.w3.org/1999/xhtml">1999-06-07: Blood pressure 136/77 mmHg</div>
    </text>
    <code>
      <coding>
        <system value="http://loinc.org"/>
        <code value="55284-4"/>
        <display value="Blood pressure systolic and diastolic"/>
      </coding>
      <text value="Blood pressure systolic and diastolic"/>
    </code>
    <effectiveDateTime value="1999-06-07"/>
    <status value="final"/>
    <subject>
      <reference value="Patient/1291938"/>
    </subject>
    <encounter>
      <reference value="Encounter/778"/>
    </encounter>
    

    <component>
        <code>
            <coding>
                <system value="http://loinc.org"/>
                <code value="8480-6"/>
                <display value="Systolic blood pressure"/>
            </coding>
            <text value="Systolic blood pressure"/>
        </code>
        <valueQuantity>
            <value value="136"/>
            <unit value="mmHg"/>
            <system value="http://unitsofmeasure.org" />
            <code value="mm[Hg]"/>
        </valueQuantity>
    </component>

    <component>
        <code>
            <coding>
                <system value="http://loinc.org"/>
                <code value="8462-4"/>
                <display value="Diastolic blood pressure"/>
            </coding>
            <text value="Diastolic blood pressure"/>
        </code>
        <valueQuantity>
            <value value="77"/>
            <unit value="mmHg"/>
            <system value="http://unitsofmeasure.org" />
            <code value="mm[Hg]"/>
        </valueQuantity>
    </component>

  </Observation>
  
  </resource>
  <request>
    <method value="POST"/>
    <url value="Observation/778-bp"/>
  </request>
</entry>
<entry>
  <resource>
    
    
  <Observation>
  <id value="778-systolic"/>
    <text>
      <status value="generated"/>
      <div xmlns="http://www.w3.org/1999/xhtml">1999-06-07: Systolic blood pressure = 136 mm[Hg]</div>
    </text>
    <code>
      <coding>
        <system value="http://loinc.org"/>
        <code value="8480-6"/>
        <display value="Systolic blood pressure"/>
      </coding>
      <text value="Systolic blood pressure"/>
    </code>
    <valueQuantity>
      <value value="136.0"/>
      <unit value="mm[Hg]"/>
      <system value="http://unitsofmeasure.org" />
      <code value="mm[Hg]"/>
    </valueQuantity>
    
    <effectiveDateTime value="1999-06-07"/>
    <status value="final"/>
    <subject>
      <reference value="Patient/1291938"/>
    </subject>
  </Observation>
  
  </resource>
  <request>
    <method value="POST"/>
    <url value="Observation/778-systolic"/>
  </request>
</entry>
<entry>
  <resource>
    
    
  <Observation>
  <id value="778-diastolic"/>
    <text>
      <status value="generated"/>
      <div xmlns="http://www.w3.org/1999/xhtml">1999-06-07: Diastolic blood pressure = 77 mm[Hg]</div>
    </text>
    <code>
      <coding>
        <system value="http://loinc.org"/>
        <code value="8462-4"/>
        <display value="Diastolic blood pressure"/>
      </coding>
      <text value="Diastolic blood pressure"/>
    </code>
    <valueQuantity>
      <value value="77.0"/>
      <unit value="mm[Hg]"/>
      <system value="http://unitsofmeasure.org" />
      <code value="mm[Hg]"/>
    </valueQuantity>
    
    <effectiveDateTime value="1999-06-07"/>
    <status value="final"/>
    <subject>
      <reference value="Patient/1291938"/>
    </subject>
  </Observation>
  
  </resource>
  <request>
    <method value="POST"/>
    <url value="Observation/778-diastolic"/>
  </request>
</entry>
  <entry>
  <resource>
    
    
  <Observation>
    <id value="779-bp"/>
    <text>
      <status value="generated"/>
      <div xmlns="http://www.w3.org/1999/xhtml">1999-06-09: Blood pressure 132/74 mmHg</div>
    </text>
    <code>
      <coding>
        <system value="http://loinc.org"/>
        <code value="55284-4"/>
        <display value="Blood pressure systolic and diastolic"/>
      </coding>
      <text value="Blood pressure systolic and diastolic"/>
    </code>
    <effectiveDateTime value="1999-06-09"/>
    <status value="final"/>
    <subject>
      <reference value="Patient/1291938"/>
    </subject>
    <encounter>
      <reference value="Encounter/779"/>
    </encounter>
    

    <component>
        <code>
            <coding>
                <system value="http://loinc.org"/>
                <code value="8480-6"/>
                <display value="Systolic blood pressure"/>
            </coding>
            <text value="Systolic blood pressure"/>
        </code>
        <valueQuantity>
            <value value="132"/>
            <unit value="mmHg"/>
            <system value="http://unitsofmeasure.org" />
            <code value="mm[Hg]"/>
        </valueQuantity>
    </component>

    <component>
        <code>
            <coding>
                <system value="http://loinc.org"/>
                <code value="8462-4"/>
                <display value="Diastolic blood pressure"/>
            </coding>
            <text value="Diastolic blood pressure"/>
        </code>
        <valueQuantity>
            <value value="74"/>
            <unit value="mmHg"/>
            <system value="http://unitsofmeasure.org" />
            <code value="mm[Hg]"/>
        </valueQuantity>
    </component>

  </Observation>
  
  </resource>
  <request>
    <method value="POST"/>
    <url value="Observation/779-bp"/>
  </request>
</entry>
<entry>
  <resource>
    
    
  <Observation>
  <id value="779-systolic"/>
    <text>
      <status value="generated"/>
      <div xmlns="http://www.w3.org/1999/xhtml">1999-06-09: Systolic blood pressure = 132 mm[Hg]</div>
    </text>
    <code>
      <coding>
        <system value="http://loinc.org"/>
        <code value="8480-6"/>
        <display value="Systolic blood pressure"/>
      </coding>
      <text value="Systolic blood pressure"/>
    </code>
    <valueQuantity>
      <value value="132.0"/>
      <unit value="mm[Hg]"/>
      <system value="http://unitsofmeasure.org" />
      <code value="mm[Hg]"/>
    </valueQuantity>
    
    <effectiveDateTime value="1999-06-09"/>
    <status value="final"/>
    <subject>
      <reference value="Patient/1291938"/>
    </subject>
  </Observation>
  
  </resource>
  <request>
    <method value="POST"/>
    <url value="Observation/779-systolic"/>
  </request>
</entry>
<entry>
  <resource>
    
    
  <Observation>
  <id value="779-diastolic"/>
    <text>
      <status value="generated"/>
      <div xmlns="http://www.w3.org/1999/xhtml">1999-06-09: Diastolic blood pressure = 74 mm[Hg]</div>
    </text>
    <code>
      <coding>
        <system value="http://loinc.org"/>
        <code value="8462-4"/>
        <display value="Diastolic blood pressure"/>
      </coding>
      <text value="Diastolic blood pressure"/>
    </code>
    <valueQuantity>
      <value value="74.0"/>
      <unit value="mm[Hg]"/>
      <system value="http://unitsofmeasure.org" />
      <code value="mm[Hg]"/>
    </valueQuantity>
    
    <effectiveDateTime value="1999-06-09"/>
    <status value="final"/>
    <subject>
      <reference value="Patient/1291938"/>
    </subject>
  </Observation>
  
  </resource>
  <request>
    <method value="POST"/>
    <url value="Observation/779-diastolic"/>
  </request>
</entry>
  <entry>
  <resource>
    
    
  <Observation>
    <id value="780-bp"/>
    <text>
      <status value="generated"/>
      <div xmlns="http://www.w3.org/1999/xhtml">2003-04-09: Blood pressure 135/74 mmHg</div>
    </text>
    <code>
      <coding>
        <system value="http://loinc.org"/>
        <code value="55284-4"/>
        <display value="Blood pressure systolic and diastolic"/>
      </coding>
      <text value="Blood pressure systolic and diastolic"/>
    </code>
    <effectiveDateTime value="2003-04-09"/>
    <status value="final"/>
    <subject>
      <reference value="Patient/1291938"/>
    </subject>
    <encounter>
      <reference value="Encounter/780"/>
    </encounter>
    

    <component>
        <code>
            <coding>
                <system value="http://loinc.org"/>
                <code value="8480-6"/>
                <display value="Systolic blood pressure"/>
            </coding>
            <text value="Systolic blood pressure"/>
        </code>
        <valueQuantity>
            <value value="135"/>
            <unit value="mmHg"/>
            <system value="http://unitsofmeasure.org" />
            <code value="mm[Hg]"/>
        </valueQuantity>
    </component>

    <component>
        <code>
            <coding>
                <system value="http://loinc.org"/>
                <code value="8462-4"/>
                <display value="Diastolic blood pressure"/>
            </coding>
            <text value="Diastolic blood pressure"/>
        </code>
        <valueQuantity>
            <value value="74"/>
            <unit value="mmHg"/>
            <system value="http://unitsofmeasure.org" />
            <code value="mm[Hg]"/>
        </valueQuantity>
    </component>

  </Observation>
  
  </resource>
  <request>
    <method value="POST"/>
    <url value="Observation/780-bp"/>
  </request>
</entry>
<entry>
  <resource>
    
    
  <Observation>
  <id value="780-systolic"/>
    <text>
      <status value="generated"/>
      <div xmlns="http://www.w3.org/1999/xhtml">2003-04-09: Systolic blood pressure = 135 mm[Hg]</div>
    </text>
    <code>
      <coding>
        <system value="http://loinc.org"/>
        <code value="8480-6"/>
        <display value="Systolic blood pressure"/>
      </coding>
      <text value="Systolic blood pressure"/>
    </code>
    <valueQuantity>
      <value value="135.0"/>
      <unit value="mm[Hg]"/>
      <system value="http://unitsofmeasure.org" />
      <code value="mm[Hg]"/>
    </valueQuantity>
    
    <effectiveDateTime value="2003-04-09"/>
    <status value="final"/>
    <subject>
      <reference value="Patient/1291938"/>
    </subject>
  </Observation>
  
  </resource>
  <request>
    <method value="POST"/>
    <url value="Observation/780-systolic"/>
  </request>
</entry>
<entry>
  <resource>
    
    
  <Observation>
  <id value="780-diastolic"/>
    <text>
      <status value="generated"/>
      <div xmlns="http://www.w3.org/1999/xhtml">2003-04-09: Diastolic blood pressure = 74 mm[Hg]</div>
    </text>
    <code>
      <coding>
        <system value="http://loinc.org"/>
        <code value="8462-4"/>
        <display value="Diastolic blood pressure"/>
      </coding>
      <text value="Diastolic blood pressure"/>
    </code>
    <valueQuantity>
      <value value="74.0"/>
      <unit value="mm[Hg]"/>
      <system value="http://unitsofmeasure.org" />
      <code value="mm[Hg]"/>
    </valueQuantity>
    
    <effectiveDateTime value="2003-04-09"/>
    <status value="final"/>
    <subject>
      <reference value="Patient/1291938"/>
    </subject>
  </Observation>
  
  </resource>
  <request>
    <method value="POST"/>
    <url value="Observation/780-diastolic"/>
  </request>
</entry>
  <entry>
  <resource>
    
    
  <Observation>
    <id value="781-bp"/>
    <text>
      <status value="generated"/>
      <div xmlns="http://www.w3.org/1999/xhtml">2003-04-11: Blood pressure 135/74 mmHg</div>
    </text>
    <code>
      <coding>
        <system value="http://loinc.org"/>
        <code value="55284-4"/>
        <display value="Blood pressure systolic and diastolic"/>
      </coding>
      <text value="Blood pressure systolic and diastolic"/>
    </code>
    <effectiveDateTime value="2003-04-11"/>
    <status value="final"/>
    <subject>
      <reference value="Patient/1291938"/>
    </subject>
    <encounter>
      <reference value="Encounter/781"/>
    </encounter>
    

    <component>
        <code>
            <coding>
                <system value="http://loinc.org"/>
                <code value="8480-6"/>
                <display value="Systolic blood pressure"/>
            </coding>
            <text value="Systolic blood pressure"/>
        </code>
        <valueQuantity>
            <value value="135"/>
            <unit value="mmHg"/>
            <system value="http://unitsofmeasure.org" />
            <code value="mm[Hg]"/>
        </valueQuantity>
    </component>

    <component>
        <code>
            <coding>
                <system value="http://loinc.org"/>
                <code value="8462-4"/>
                <display value="Diastolic blood pressure"/>
            </coding>
            <text value="Diastolic blood pressure"/>
        </code>
        <valueQuantity>
            <value value="74"/>
            <unit value="mmHg"/>
            <system value="http://unitsofmeasure.org" />
            <code value="mm[Hg]"/>
        </valueQuantity>
    </component>

  </Observation>
  
  </resource>
  <request>
    <method value="POST"/>
    <url value="Observation/781-bp"/>
  </request>
</entry>
<entry>
  <resource>
    
    
  <Observation>
  <id value="781-systolic"/>
    <text>
      <status value="generated"/>
      <div xmlns="http://www.w3.org/1999/xhtml">2003-04-11: Systolic blood pressure = 135 mm[Hg]</div>
    </text>
    <code>
      <coding>
        <system value="http://loinc.org"/>
        <code value="8480-6"/>
        <display value="Systolic blood pressure"/>
      </coding>
      <text value="Systolic blood pressure"/>
    </code>
    <valueQuantity>
      <value value="135.0"/>
      <unit value="mm[Hg]"/>
      <system value="http://unitsofmeasure.org" />
      <code value="mm[Hg]"/>
    </valueQuantity>
    
    <effectiveDateTime value="2003-04-11"/>
    <status value="final"/>
    <subject>
      <reference value="Patient/1291938"/>
    </subject>
  </Observation>
  
  </resource>
  <request>
    <method value="POST"/>
    <url value="Observation/781-systolic"/>
  </request>
</entry>
<entry>
  <resource>
    
    
  <Observation>
  <id value="781-diastolic"/>
    <text>
      <status value="generated"/>
      <div xmlns="http://www.w3.org/1999/xhtml">2003-04-11: Diastolic blood pressure = 74 mm[Hg]</div>
    </text>
    <code>
      <coding>
        <system value="http://loinc.org"/>
        <code value="8462-4"/>
        <display value="Diastolic blood pressure"/>
      </coding>
      <text value="Diastolic blood pressure"/>
    </code>
    <valueQuantity>
      <value value="74.0"/>
      <unit value="mm[Hg]"/>
      <system value="http://unitsofmeasure.org" />
      <code value="mm[Hg]"/>
    </valueQuantity>
    
    <effectiveDateTime value="2003-04-11"/>
    <status value="final"/>
    <subject>
      <reference value="Patient/1291938"/>
    </subject>
  </Observation>
  
  </resource>
  <request>
    <method value="POST"/>
    <url value="Observation/781-diastolic"/>
  </request>
</entry>
  <entry>
  <resource>
    
    
  <Observation>
    <id value="782-bp"/>
    <text>
      <status value="generated"/>
      <div xmlns="http://www.w3.org/1999/xhtml">2003-04-14: Blood pressure 137/75 mmHg</div>
    </text>
    <code>
      <coding>
        <system value="http://loinc.org"/>
        <code value="55284-4"/>
        <display value="Blood pressure systolic and diastolic"/>
      </coding>
      <text value="Blood pressure systolic and diastolic"/>
    </code>
    <effectiveDateTime value="2003-04-14"/>
    <status value="final"/>
    <subject>
      <reference value="Patient/1291938"/>
    </subject>
    <encounter>
      <reference value="Encounter/782"/>
    </encounter>
    

    <component>
        <code>
            <coding>
                <system value="http://loinc.org"/>
                <code value="8480-6"/>
                <display value="Systolic blood pressure"/>
            </coding>
            <text value="Systolic blood pressure"/>
        </code>
        <valueQuantity>
            <value value="137"/>
            <unit value="mmHg"/>
            <system value="http://unitsofmeasure.org" />
            <code value="mm[Hg]"/>
        </valueQuantity>
    </component>

    <component>
        <code>
            <coding>
                <system value="http://loinc.org"/>
                <code value="8462-4"/>
                <display value="Diastolic blood pressure"/>
            </coding>
            <text value="Diastolic blood pressure"/>
        </code>
        <valueQuantity>
            <value value="75"/>
            <unit value="mmHg"/>
            <system value="http://unitsofmeasure.org" />
            <code value="mm[Hg]"/>
        </valueQuantity>
    </component>

  </Observation>
  
  </resource>
  <request>
    <method value="POST"/>
    <url value="Observation/782-bp"/>
  </request>
</entry>
<entry>
  <resource>
    
    
  <Observation>
  <id value="782-systolic"/>
    <text>
      <status value="generated"/>
      <div xmlns="http://www.w3.org/1999/xhtml">2003-04-14: Systolic blood pressure = 137 mm[Hg]</div>
    </text>
    <code>
      <coding>
        <system value="http://loinc.org"/>
        <code value="8480-6"/>
        <display value="Systolic blood pressure"/>
      </coding>
      <text value="Systolic blood pressure"/>
    </code>
    <valueQuantity>
      <value value="137.0"/>
      <unit value="mm[Hg]"/>
      <system value="http://unitsofmeasure.org" />
      <code value="mm[Hg]"/>
    </valueQuantity>
    
    <effectiveDateTime value="2003-04-14"/>
    <status value="final"/>
    <subject>
      <reference value="Patient/1291938"/>
    </subject>
  </Observation>
  
  </resource>
  <request>
    <method value="POST"/>
    <url value="Observation/782-systolic"/>
  </request>
</entry>
<entry>
  <resource>
    
    
  <Observation>
  <id value="782-diastolic"/>
    <text>
      <status value="generated"/>
      <div xmlns="http://www.w3.org/1999/xhtml">2003-04-14: Diastolic blood pressure = 75 mm[Hg]</div>
    </text>
    <code>
      <coding>
        <system value="http://loinc.org"/>
        <code value="8462-4"/>
        <display value="Diastolic blood pressure"/>
      </coding>
      <text value="Diastolic blood pressure"/>
    </code>
    <valueQuantity>
      <value value="75.0"/>
      <unit value="mm[Hg]"/>
      <system value="http://unitsofmeasure.org" />
      <code value="mm[Hg]"/>
    </valueQuantity>
    
    <effectiveDateTime value="2003-04-14"/>
    <status value="final"/>
    <subject>
      <reference value="Patient/1291938"/>
    </subject>
  </Observation>
  
  </resource>
  <request>
    <method value="POST"/>
    <url value="Observation/782-diastolic"/>
  </request>
</entry>
  <entry>
  <resource>
    
    
  <Observation>
    <id value="783-bp"/>
    <text>
      <status value="generated"/>
      <div xmlns="http://www.w3.org/1999/xhtml">2003-04-15: Blood pressure 133/73 mmHg</div>
    </text>
    <code>
      <coding>
        <system value="http://loinc.org"/>
        <code value="55284-4"/>
        <display value="Blood pressure systolic and diastolic"/>
      </coding>
      <text value="Blood pressure systolic and diastolic"/>
    </code>
    <effectiveDateTime value="2003-04-15"/>
    <status value="final"/>
    <subject>
      <reference value="Patient/1291938"/>
    </subject>
    <encounter>
      <reference value="Encounter/783"/>
    </encounter>
    

    <component>
        <code>
            <coding>
                <system value="http://loinc.org"/>
                <code value="8480-6"/>
                <display value="Systolic blood pressure"/>
            </coding>
            <text value="Systolic blood pressure"/>
        </code>
        <valueQuantity>
            <value value="133"/>
            <unit value="mmHg"/>
            <system value="http://unitsofmeasure.org" />
            <code value="mm[Hg]"/>
        </valueQuantity>
    </component>

    <component>
        <code>
            <coding>
                <system value="http://loinc.org"/>
                <code value="8462-4"/>
                <display value="Diastolic blood pressure"/>
            </coding>
            <text value="Diastolic blood pressure"/>
        </code>
        <valueQuantity>
            <value value="73"/>
            <unit value="mmHg"/>
            <system value="http://unitsofmeasure.org" />
            <code value="mm[Hg]"/>
        </valueQuantity>
    </component>

  </Observation>
  
  </resource>
  <request>
    <method value="POST"/>
    <url value="Observation/783-bp"/>
  </request>
</entry>
<entry>
  <resource>
    
    
  <Observation>
  <id value="783-systolic"/>
    <text>
      <status value="generated"/>
      <div xmlns="http://www.w3.org/1999/xhtml">2003-04-15: Systolic blood pressure = 133 mm[Hg]</div>
    </text>
    <code>
      <coding>
        <system value="http://loinc.org"/>
        <code value="8480-6"/>
        <display value="Systolic blood pressure"/>
      </coding>
      <text value="Systolic blood pressure"/>
    </code>
    <valueQuantity>
      <value value="133.0"/>
      <unit value="mm[Hg]"/>
      <system value="http://unitsofmeasure.org" />
      <code value="mm[Hg]"/>
    </valueQuantity>
    
    <effectiveDateTime value="2003-04-15"/>
    <status value="final"/>
    <subject>
      <reference value="Patient/1291938"/>
    </subject>
  </Observation>
  
  </resource>
  <request>
    <method value="POST"/>
    <url value="Observation/783-systolic"/>
  </request>
</entry>
<entry>
  <resource>
    
    
  <Observation>
  <id value="783-diastolic"/>
    <text>
      <status value="generated"/>
      <div xmlns="http://www.w3.org/1999/xhtml">2003-04-15: Diastolic blood pressure = 73 mm[Hg]</div>
    </text>
    <code>
      <coding>
        <system value="http://loinc.org"/>
        <code value="8462-4"/>
        <display value="Diastolic blood pressure"/>
      </coding>
      <text value="Diastolic blood pressure"/>
    </code>
    <valueQuantity>
      <value value="73.0"/>
      <unit value="mm[Hg]"/>
      <system value="http://unitsofmeasure.org" />
      <code value="mm[Hg]"/>
    </valueQuantity>
    
    <effectiveDateTime value="2003-04-15"/>
    <status value="final"/>
    <subject>
      <reference value="Patient/1291938"/>
    </subject>
  </Observation>
  
  </resource>
  <request>
    <method value="POST"/>
    <url value="Observation/783-diastolic"/>
  </request>
</entry>
  <entry>
  <resource>
    
    
  <Observation>
    <id value="784-bp"/>
    <text>
      <status value="generated"/>
      <div xmlns="http://www.w3.org/1999/xhtml">2006-03-14: Blood pressure 137/74 mmHg</div>
    </text>
    <code>
      <coding>
        <system value="http://loinc.org"/>
        <code value="55284-4"/>
        <display value="Blood pressure systolic and diastolic"/>
      </coding>
      <text value="Blood pressure systolic and diastolic"/>
    </code>
    <effectiveDateTime value="2006-03-14"/>
    <status value="final"/>
    <subject>
      <reference value="Patient/1291938"/>
    </subject>
    <encounter>
      <reference value="Encounter/784"/>
    </encounter>
    

    <component>
        <code>
            <coding>
                <system value="http://loinc.org"/>
                <code value="8480-6"/>
                <display value="Systolic blood pressure"/>
            </coding>
            <text value="Systolic blood pressure"/>
        </code>
        <valueQuantity>
            <value value="137"/>
            <unit value="mmHg"/>
            <system value="http://unitsofmeasure.org" />
            <code value="mm[Hg]"/>
        </valueQuantity>
    </component>

    <component>
        <code>
            <coding>
                <system value="http://loinc.org"/>
                <code value="8462-4"/>
                <display value="Diastolic blood pressure"/>
            </coding>
            <text value="Diastolic blood pressure"/>
        </code>
        <valueQuantity>
            <value value="74"/>
            <unit value="mmHg"/>
            <system value="http://unitsofmeasure.org" />
            <code value="mm[Hg]"/>
        </valueQuantity>
    </component>

  </Observation>
  
  </resource>
  <request>
    <method value="POST"/>
    <url value="Observation/784-bp"/>
  </request>
</entry>
<entry>
  <resource>
    
    
  <Observation>
  <id value="784-systolic"/>
    <text>
      <status value="generated"/>
      <div xmlns="http://www.w3.org/1999/xhtml">2006-03-14: Systolic blood pressure = 137 mm[Hg]</div>
    </text>
    <code>
      <coding>
        <system value="http://loinc.org"/>
        <code value="8480-6"/>
        <display value="Systolic blood pressure"/>
      </coding>
      <text value="Systolic blood pressure"/>
    </code>
    <valueQuantity>
      <value value="137.0"/>
      <unit value="mm[Hg]"/>
      <system value="http://unitsofmeasure.org" />
      <code value="mm[Hg]"/>
    </valueQuantity>
    
    <effectiveDateTime value="2006-03-14"/>
    <status value="final"/>
    <subject>
      <reference value="Patient/1291938"/>
    </subject>
  </Observation>
  
  </resource>
  <request>
    <method value="POST"/>
    <url value="Observation/784-systolic"/>
  </request>
</entry>
<entry>
  <resource>
    
    
  <Observation>
  <id value="784-diastolic"/>
    <text>
      <status value="generated"/>
      <div xmlns="http://www.w3.org/1999/xhtml">2006-03-14: Diastolic blood pressure = 74 mm[Hg]</div>
    </text>
    <code>
      <coding>
        <system value="http://loinc.org"/>
        <code value="8462-4"/>
        <display value="Diastolic blood pressure"/>
      </coding>
      <text value="Diastolic blood pressure"/>
    </code>
    <valueQuantity>
      <value value="74.0"/>
      <unit value="mm[Hg]"/>
      <system value="http://unitsofmeasure.org" />
      <code value="mm[Hg]"/>
    </valueQuantity>
    
    <effectiveDateTime value="2006-03-14"/>
    <status value="final"/>
    <subject>
      <reference value="Patient/1291938"/>
    </subject>
  </Observation>
  
  </resource>
  <request>
    <method value="POST"/>
    <url value="Observation/784-diastolic"/>
  </request>
</entry>
  <entry>
  <resource>
    
    
  <Observation>
    <id value="785-bp"/>
    <text>
      <status value="generated"/>
      <div xmlns="http://www.w3.org/1999/xhtml">2006-03-15: Blood pressure 136/73 mmHg</div>
    </text>
    <code>
      <coding>
        <system value="http://loinc.org"/>
        <code value="55284-4"/>
        <display value="Blood pressure systolic and diastolic"/>
      </coding>
      <text value="Blood pressure systolic and diastolic"/>
    </code>
    <effectiveDateTime value="2006-03-15"/>
    <status value="final"/>
    <subject>
      <reference value="Patient/1291938"/>
    </subject>
    <encounter>
      <reference value="Encounter/785"/>
    </encounter>
    

    <component>
        <code>
            <coding>
                <system value="http://loinc.org"/>
                <code value="8480-6"/>
                <display value="Systolic blood pressure"/>
            </coding>
            <text value="Systolic blood pressure"/>
        </code>
        <valueQuantity>
            <value value="136"/>
            <unit value="mmHg"/>
            <system value="http://unitsofmeasure.org" />
            <code value="mm[Hg]"/>
        </valueQuantity>
    </component>

    <component>
        <code>
            <coding>
                <system value="http://loinc.org"/>
                <code value="8462-4"/>
                <display value="Diastolic blood pressure"/>
            </coding>
            <text value="Diastolic blood pressure"/>
        </code>
        <valueQuantity>
            <value value="73"/>
            <unit value="mmHg"/>
            <system value="http://unitsofmeasure.org" />
            <code value="mm[Hg]"/>
        </valueQuantity>
    </component>

  </Observation>
  
  </resource>
  <request>
    <method value="POST"/>
    <url value="Observation/785-bp"/>
  </request>
</entry>
<entry>
  <resource>
    
    
  <Observation>
  <id value="785-systolic"/>
    <text>
      <status value="generated"/>
      <div xmlns="http://www.w3.org/1999/xhtml">2006-03-15: Systolic blood pressure = 136 mm[Hg]</div>
    </text>
    <code>
      <coding>
        <system value="http://loinc.org"/>
        <code value="8480-6"/>
        <display value="Systolic blood pressure"/>
      </coding>
      <text value="Systolic blood pressure"/>
    </code>
    <valueQuantity>
      <value value="136.0"/>
      <unit value="mm[Hg]"/>
      <system value="http://unitsofmeasure.org" />
      <code value="mm[Hg]"/>
    </valueQuantity>
    
    <effectiveDateTime value="2006-03-15"/>
    <status value="final"/>
    <subject>
      <reference value="Patient/1291938"/>
    </subject>
  </Observation>
  
  </resource>
  <request>
    <method value="POST"/>
    <url value="Observation/785-systolic"/>
  </request>
</entry>
<entry>
  <resource>
    
    
  <Observation>
  <id value="785-diastolic"/>
    <text>
      <status value="generated"/>
      <div xmlns="http://www.w3.org/1999/xhtml">2006-03-15: Diastolic blood pressure = 73 mm[Hg]</div>
    </text>
    <code>
      <coding>
        <system value="http://loinc.org"/>
        <code value="8462-4"/>
        <display value="Diastolic blood pressure"/>
      </coding>
      <text value="Diastolic blood pressure"/>
    </code>
    <valueQuantity>
      <value value="73.0"/>
      <unit value="mm[Hg]"/>
      <system value="http://unitsofmeasure.org" />
      <code value="mm[Hg]"/>
    </valueQuantity>
    
    <effectiveDateTime value="2006-03-15"/>
    <status value="final"/>
    <subject>
      <reference value="Patient/1291938"/>
    </subject>
  </Observation>
  
  </resource>
  <request>
    <method value="POST"/>
    <url value="Observation/785-diastolic"/>
  </request>
</entry>
  <entry>
  <resource>
    
    
  <Observation>
    <id value="786-bp"/>
    <text>
      <status value="generated"/>
      <div xmlns="http://www.w3.org/1999/xhtml">2006-03-16: Blood pressure 135/72 mmHg</div>
    </text>
    <code>
      <coding>
        <system value="http://loinc.org"/>
        <code value="55284-4"/>
        <display value="Blood pressure systolic and diastolic"/>
      </coding>
      <text value="Blood pressure systolic and diastolic"/>
    </code>
    <effectiveDateTime value="2006-03-16"/>
    <status value="final"/>
    <subject>
      <reference value="Patient/1291938"/>
    </subject>
    <encounter>
      <reference value="Encounter/786"/>
    </encounter>
    

    <component>
        <code>
            <coding>
                <system value="http://loinc.org"/>
                <code value="8480-6"/>
                <display value="Systolic blood pressure"/>
            </coding>
            <text value="Systolic blood pressure"/>
        </code>
        <valueQuantity>
            <value value="135"/>
            <unit value="mmHg"/>
            <system value="http://unitsofmeasure.org" />
            <code value="mm[Hg]"/>
        </valueQuantity>
    </component>

    <component>
        <code>
            <coding>
                <system value="http://loinc.org"/>
                <code value="8462-4"/>
                <display value="Diastolic blood pressure"/>
            </coding>
            <text value="Diastolic blood pressure"/>
        </code>
        <valueQuantity>
            <value value="72"/>
            <unit value="mmHg"/>
            <system value="http://unitsofmeasure.org" />
            <code value="mm[Hg]"/>
        </valueQuantity>
    </component>

  </Observation>
  
  </resource>
  <request>
    <method value="POST"/>
    <url value="Observation/786-bp"/>
  </request>
</entry>
<entry>
  <resource>
    
    
  <Observation>
  <id value="786-systolic"/>
    <text>
      <status value="generated"/>
      <div xmlns="http://www.w3.org/1999/xhtml">2006-03-16: Systolic blood pressure = 135 mm[Hg]</div>
    </text>
    <code>
      <coding>
        <system value="http://loinc.org"/>
        <code value="8480-6"/>
        <display value="Systolic blood pressure"/>
      </coding>
      <text value="Systolic blood pressure"/>
    </code>
    <valueQuantity>
      <value value="135.0"/>
      <unit value="mm[Hg]"/>
      <system value="http://unitsofmeasure.org" />
      <code value="mm[Hg]"/>
    </valueQuantity>
    
    <effectiveDateTime value="2006-03-16"/>
    <status value="final"/>
    <subject>
      <reference value="Patient/1291938"/>
    </subject>
  </Observation>
  
  </resource>
  <request>
    <method value="POST"/>
    <url value="Observation/786-systolic"/>
  </request>
</entry>
<entry>
  <resource>
    
    
  <Observation>
  <id value="786-diastolic"/>
    <text>
      <status value="generated"/>
      <div xmlns="http://www.w3.org/1999/xhtml">2006-03-16: Diastolic blood pressure = 72 mm[Hg]</div>
    </text>
    <code>
      <coding>
        <system value="http://loinc.org"/>
        <code value="8462-4"/>
        <display value="Diastolic blood pressure"/>
      </coding>
      <text value="Diastolic blood pressure"/>
    </code>
    <valueQuantity>
      <value value="72.0"/>
      <unit value="mm[Hg]"/>
      <system value="http://unitsofmeasure.org" />
      <code value="mm[Hg]"/>
    </valueQuantity>
    
    <effectiveDateTime value="2006-03-16"/>
    <status value="final"/>
    <subject>
      <reference value="Patient/1291938"/>
    </subject>
  </Observation>
  
  </resource>
  <request>
    <method value="POST"/>
    <url value="Observation/786-diastolic"/>
  </request>
</entry>
<entry>
  <resource>
    
    
  <Observation>
  <id value="766-height"/>
    <text>
      <status value="generated"/>
      <div xmlns="http://www.w3.org/1999/xhtml">1997-05-17: height = 173.99 cm</div>
    </text>
    <code>
      <coding>
        <system value="http://loinc.org"/>
        <code value="8302-2"/>
        <display value="height"/>
      </coding>
      <text value="height"/>
    </code>
    <valueQuantity>
      <value value="173.99"/>
      <unit value="cm"/>
      <system value="http://unitsofmeasure.org" />
      <code value="cm"/>
    </valueQuantity>
    
    <effectiveDateTime value="1997-05-17"/>
    <status value="final"/>
    <subject>
      <reference value="Patient/1291938"/>
    </subject>
    <encounter>
      <reference value="Encounter/766"/>
    </encounter>
    
  </Observation>
  
  </resource>
  <request>
    <method value="POST"/>
    <url value="Observation/766-height"/>
  </request>
</entry>
<entry>
  <resource>
    
    
  <Observation>
  <id value="766-heartrate"/>
    <text>
      <status value="generated"/>
      <div xmlns="http://www.w3.org/1999/xhtml">1997-05-17: heart_rate = 91.0 {beats}/min</div>
    </text>
    <code>
      <coding>
        <system value="http://loinc.org"/>
        <code value="8867-4"/>
        <display value="heart_rate"/>
      </coding>
      <text value="heart_rate"/>
    </code>
    <valueQuantity>
      <value value="91.0"/>
      <unit value="{beats}/min"/>
      <system value="http://unitsofmeasure.org" />
      <code value="{beats}/min"/>
    </valueQuantity>
    
    <effectiveDateTime value="1997-05-17"/>
    <status value="final"/>
    <subject>
      <reference value="Patient/1291938"/>
    </subject>
    <encounter>
      <reference value="Encounter/766"/>
    </encounter>
    
  </Observation>
  
  </resource>
  <request>
    <method value="POST"/>
    <url value="Observation/766-heartrate"/>
  </request>
</entry>
<entry>
  <resource>
    
    
  <Observation>
  <id value="766-respiratoryrate"/>
    <text>
      <status value="generated"/>
      <div xmlns="http://www.w3.org/1999/xhtml">1997-05-17: respiratory_rate = 18.0 {breaths}/min</div>
    </text>
    <code>
      <coding>
        <system value="http://loinc.org"/>
        <code value="9279-1"/>
        <display value="respiratory_rate"/>
      </coding>
      <text value="respiratory_rate"/>
    </code>
    <valueQuantity>
      <value value="18.0"/>
      <unit value="{breaths}/min"/>
      <system value="http://unitsofmeasure.org" />
      <code value="{breaths}/min"/>
    </valueQuantity>
    
    <effectiveDateTime value="1997-05-17"/>
    <status value="final"/>
    <subject>
      <reference value="Patient/1291938"/>
    </subject>
    <encounter>
      <reference value="Encounter/766"/>
    </encounter>
    
  </Observation>
  
  </resource>
  <request>
    <method value="POST"/>
    <url value="Observation/766-respiratoryrate"/>
  </request>
</entry>
<entry>
  <resource>
    
    
  <Observation>
  <id value="766-temperature"/>
    <text>
      <status value="generated"/>
      <div xmlns="http://www.w3.org/1999/xhtml">1997-05-17: temperature = 36.11111 Cel</div>
    </text>
    <code>
      <coding>
        <system value="http://loinc.org"/>
        <code value="8310-5"/>
        <display value="temperature"/>
      </coding>
      <text value="temperature"/>
    </code>
    <valueQuantity>
      <value value="36.11111"/>
      <unit value="Cel"/>
      <system value="http://unitsofmeasure.org" />
      <code value="Cel"/>
    </valueQuantity>
    
    <effectiveDateTime value="1997-05-17"/>
    <status value="final"/>
    <subject>
      <reference value="Patient/1291938"/>
    </subject>
    <encounter>
      <reference value="Encounter/766"/>
    </encounter>
    
  </Observation>
  
  </resource>
  <request>
    <method value="POST"/>
    <url value="Observation/766-temperature"/>
  </request>
</entry>
<entry>
  <resource>
    
    
  <Observation>
  <id value="766-weight"/>
    <text>
      <status value="generated"/>
      <div xmlns="http://www.w3.org/1999/xhtml">1997-05-17: weight = 99.15529 kg</div>
    </text>
    <code>
      <coding>
        <system value="http://loinc.org"/>
        <code value="3141-9"/>
        <display value="weight"/>
      </coding>
      <text value="weight"/>
    </code>
    <valueQuantity>
      <value value="99.15529"/>
      <unit value="kg"/>
      <system value="http://unitsofmeasure.org" />
      <code value="kg"/>
    </valueQuantity>
    
    <effectiveDateTime value="1997-05-17"/>
    <status value="final"/>
    <subject>
      <reference value="Patient/1291938"/>
    </subject>
    <encounter>
      <reference value="Encounter/766"/>
    </encounter>
    
  </Observation>
  
  </resource>
  <request>
    <method value="POST"/>
    <url value="Observation/766-weight"/>
  </request>
</entry>
<entry>
  <resource>
    
    
  <Observation>
  <id value="766-bmi"/>
    <text>
      <status value="generated"/>
      <div xmlns="http://www.w3.org/1999/xhtml">1997-05-17: bmi = 32.8 kg/m2</div>
    </text>
    <code>
      <coding>
        <system value="http://loinc.org"/>
        <code value="39156-5"/>
        <display value="bmi"/>
      </coding>
      <text value="bmi"/>
    </code>
    <valueQuantity>
      <value value="32.8"/>
      <unit value="kg/m2"/>
      <system value="http://unitsofmeasure.org" />
      <code value="kg/m2"/>
    </valueQuantity>
    
    <effectiveDateTime value="1997-05-17"/>
    <status value="final"/>
    <subject>
      <reference value="Patient/1291938"/>
    </subject>
    <encounter>
      <reference value="Encounter/766"/>
    </encounter>
    
  </Observation>
  
  </resource>
  <request>
    <method value="POST"/>
    <url value="Observation/766-bmi"/>
  </request>
</entry>
<entry>
  <resource>
    
    
  <Observation>
  <id value="766-oxygensaturation"/>
    <text>
      <status value="generated"/>
      <div xmlns="http://www.w3.org/1999/xhtml">1997-05-17: oxygen_saturation = 96.0 %{HemoglobinSaturation}</div>
    </text>
    <code>
      <coding>
        <system value="http://loinc.org"/>
        <code value="2710-2"/>
        <display value="oxygen_saturation"/>
      </coding>
      <text value="oxygen_saturation"/>
    </code>
    <valueQuantity>
      <value value="96.0"/>
      <unit value="%{HemoglobinSaturation}"/>
      <system value="http://unitsofmeasure.org" />
      <code value="%{HemoglobinSaturation}"/>
    </valueQuantity>
    
    <effectiveDateTime value="1997-05-17"/>
    <status value="final"/>
    <subject>
      <reference value="Patient/1291938"/>
    </subject>
    <encounter>
      <reference value="Encounter/766"/>
    </encounter>
    
  </Observation>
  
  </resource>
  <request>
    <method value="POST"/>
    <url value="Observation/766-oxygensaturation"/>
  </request>
</entry>
<entry>
  <resource>
    
    
  <Observation>
  <id value="767-height"/>
    <text>
      <status value="generated"/>
      <div xmlns="http://www.w3.org/1999/xhtml">1997-05-19: height = 174.244 cm</div>
    </text>
    <code>
      <coding>
        <system value="http://loinc.org"/>
        <code value="8302-2"/>
        <display value="height"/>
      </coding>
      <text value="height"/>
    </code>
    <valueQuantity>
      <value value="174.244"/>
      <unit value="cm"/>
      <system value="http://unitsofmeasure.org" />
      <code value="cm"/>
    </valueQuantity>
    
    <effectiveDateTime value="1997-05-19"/>
    <status value="final"/>
    <subject>
      <reference value="Patient/1291938"/>
    </subject>
    <encounter>
      <reference value="Encounter/767"/>
    </encounter>
    
  </Observation>
  
  </resource>
  <request>
    <method value="POST"/>
    <url value="Observation/767-height"/>
  </request>
</entry>
<entry>
  <resource>
    
    
  <Observation>
  <id value="767-heartrate"/>
    <text>
      <status value="generated"/>
      <div xmlns="http://www.w3.org/1999/xhtml">1997-05-19: heart_rate = 77.0 {beats}/min</div>
    </text>
    <code>
      <coding>
        <system value="http://loinc.org"/>
        <code value="8867-4"/>
        <display value="heart_rate"/>
      </coding>
      <text value="heart_rate"/>
    </code>
    <valueQuantity>
      <value value="77.0"/>
      <unit value="{beats}/min"/>
      <system value="http://unitsofmeasure.org" />
      <code value="{beats}/min"/>
    </valueQuantity>
    
    <effectiveDateTime value="1997-05-19"/>
    <status value="final"/>
    <subject>
      <reference value="Patient/1291938"/>
    </subject>
    <encounter>
      <reference value="Encounter/767"/>
    </encounter>
    
  </Observation>
  
  </resource>
  <request>
    <method value="POST"/>
    <url value="Observation/767-heartrate"/>
  </request>
</entry>
<entry>
  <resource>
    
    
  <Observation>
  <id value="767-respiratoryrate"/>
    <text>
      <status value="generated"/>
      <div xmlns="http://www.w3.org/1999/xhtml">1997-05-19: respiratory_rate = 18.0 {breaths}/min</div>
    </text>
    <code>
      <coding>
        <system value="http://loinc.org"/>
        <code value="9279-1"/>
        <display value="respiratory_rate"/>
      </coding>
      <text value="respiratory_rate"/>
    </code>
    <valueQuantity>
      <value value="18.0"/>
      <unit value="{breaths}/min"/>
      <system value="http://unitsofmeasure.org" />
      <code value="{breaths}/min"/>
    </valueQuantity>
    
    <effectiveDateTime value="1997-05-19"/>
    <status value="final"/>
    <subject>
      <reference value="Patient/1291938"/>
    </subject>
    <encounter>
      <reference value="Encounter/767"/>
    </encounter>
    
  </Observation>
  
  </resource>
  <request>
    <method value="POST"/>
    <url value="Observation/767-respiratoryrate"/>
  </request>
</entry>
<entry>
  <resource>
    
    
  <Observation>
  <id value="767-temperature"/>
    <text>
      <status value="generated"/>
      <div xmlns="http://www.w3.org/1999/xhtml">1997-05-19: temperature = 36.11111 Cel</div>
    </text>
    <code>
      <coding>
        <system value="http://loinc.org"/>
        <code value="8310-5"/>
        <display value="temperature"/>
      </coding>
      <text value="temperature"/>
    </code>
    <valueQuantity>
      <value value="36.11111"/>
      <unit value="Cel"/>
      <system value="http://unitsofmeasure.org" />
      <code value="Cel"/>
    </valueQuantity>
    
    <effectiveDateTime value="1997-05-19"/>
    <status value="final"/>
    <subject>
      <reference value="Patient/1291938"/>
    </subject>
    <encounter>
      <reference value="Encounter/767"/>
    </encounter>
    
  </Observation>
  
  </resource>
  <request>
    <method value="POST"/>
    <url value="Observation/767-temperature"/>
  </request>
</entry>
<entry>
  <resource>
    
    
  <Observation>
  <id value="767-weight"/>
    <text>
      <status value="generated"/>
      <div xmlns="http://www.w3.org/1999/xhtml">1997-05-19: weight = 97.477 kg</div>
    </text>
    <code>
      <coding>
        <system value="http://loinc.org"/>
        <code value="3141-9"/>
        <display value="weight"/>
      </coding>
      <text value="weight"/>
    </code>
    <valueQuantity>
      <value value="97.477"/>
      <unit value="kg"/>
      <system value="http://unitsofmeasure.org" />
      <code value="kg"/>
    </valueQuantity>
    
    <effectiveDateTime value="1997-05-19"/>
    <status value="final"/>
    <subject>
      <reference value="Patient/1291938"/>
    </subject>
    <encounter>
      <reference value="Encounter/767"/>
    </encounter>
    
  </Observation>
  
  </resource>
  <request>
    <method value="POST"/>
    <url value="Observation/767-weight"/>
  </request>
</entry>
<entry>
  <resource>
    
    
  <Observation>
  <id value="767-bmi"/>
    <text>
      <status value="generated"/>
      <div xmlns="http://www.w3.org/1999/xhtml">1997-05-19: bmi = 32.2 kg/m2</div>
    </text>
    <code>
      <coding>
        <system value="http://loinc.org"/>
        <code value="39156-5"/>
        <display value="bmi"/>
      </coding>
      <text value="bmi"/>
    </code>
    <valueQuantity>
      <value value="32.2"/>
      <unit value="kg/m2"/>
      <system value="http://unitsofmeasure.org" />
      <code value="kg/m2"/>
    </valueQuantity>
    
    <effectiveDateTime value="1997-05-19"/>
    <status value="final"/>
    <subject>
      <reference value="Patient/1291938"/>
    </subject>
    <encounter>
      <reference value="Encounter/767"/>
    </encounter>
    
  </Observation>
  
  </resource>
  <request>
    <method value="POST"/>
    <url value="Observation/767-bmi"/>
  </request>
</entry>
<entry>
  <resource>
    
    
  <Observation>
  <id value="767-oxygensaturation"/>
    <text>
      <status value="generated"/>
      <div xmlns="http://www.w3.org/1999/xhtml">1997-05-19: oxygen_saturation = 96.0 %{HemoglobinSaturation}</div>
    </text>
    <code>
      <coding>
        <system value="http://loinc.org"/>
        <code value="2710-2"/>
        <display value="oxygen_saturation"/>
      </coding>
      <text value="oxygen_saturation"/>
    </code>
    <valueQuantity>
      <value value="96.0"/>
      <unit value="%{HemoglobinSaturation}"/>
      <system value="http://unitsofmeasure.org" />
      <code value="%{HemoglobinSaturation}"/>
    </valueQuantity>
    
    <effectiveDateTime value="1997-05-19"/>
    <status value="final"/>
    <subject>
      <reference value="Patient/1291938"/>
    </subject>
    <encounter>
      <reference value="Encounter/767"/>
    </encounter>
    
  </Observation>
  
  </resource>
  <request>
    <method value="POST"/>
    <url value="Observation/767-oxygensaturation"/>
  </request>
</entry>
<entry>
  <resource>
    
    
  <Observation>
  <id value="768-height"/>
    <text>
      <status value="generated"/>
      <div xmlns="http://www.w3.org/1999/xhtml">1997-06-18: height = 173.99 cm</div>
    </text>
    <code>
      <coding>
        <system value="http://loinc.org"/>
        <code value="8302-2"/>
        <display value="height"/>
      </coding>
      <text value="height"/>
    </code>
    <valueQuantity>
      <value value="173.99"/>
      <unit value="cm"/>
      <system value="http://unitsofmeasure.org" />
      <code value="cm"/>
    </valueQuantity>
    
    <effectiveDateTime value="1997-06-18"/>
    <status value="final"/>
    <subject>
      <reference value="Patient/1291938"/>
    </subject>
    <encounter>
      <reference value="Encounter/768"/>
    </encounter>
    
  </Observation>
  
  </resource>
  <request>
    <method value="POST"/>
    <url value="Observation/768-height"/>
  </request>
</entry>
<entry>
  <resource>
    
    
  <Observation>
  <id value="768-heartrate"/>
    <text>
      <status value="generated"/>
      <div xmlns="http://www.w3.org/1999/xhtml">1997-06-18: heart_rate = 77.0 {beats}/min</div>
    </text>
    <code>
      <coding>
        <system value="http://loinc.org"/>
        <code value="8867-4"/>
        <display value="heart_rate"/>
      </coding>
      <text value="heart_rate"/>
    </code>
    <valueQuantity>
      <value value="77.0"/>
      <unit value="{beats}/min"/>
      <system value="http://unitsofmeasure.org" />
      <code value="{beats}/min"/>
    </valueQuantity>
    
    <effectiveDateTime value="1997-06-18"/>
    <status value="final"/>
    <subject>
      <reference value="Patient/1291938"/>
    </subject>
    <encounter>
      <reference value="Encounter/768"/>
    </encounter>
    
  </Observation>
  
  </resource>
  <request>
    <method value="POST"/>
    <url value="Observation/768-heartrate"/>
  </request>
</entry>
<entry>
  <resource>
    
    
  <Observation>
  <id value="768-respiratoryrate"/>
    <text>
      <status value="generated"/>
      <div xmlns="http://www.w3.org/1999/xhtml">1997-06-18: respiratory_rate = 18.0 {breaths}/min</div>
    </text>
    <code>
      <coding>
        <system value="http://loinc.org"/>
        <code value="9279-1"/>
        <display value="respiratory_rate"/>
      </coding>
      <text value="respiratory_rate"/>
    </code>
    <valueQuantity>
      <value value="18.0"/>
      <unit value="{breaths}/min"/>
      <system value="http://unitsofmeasure.org" />
      <code value="{breaths}/min"/>
    </valueQuantity>
    
    <effectiveDateTime value="1997-06-18"/>
    <status value="final"/>
    <subject>
      <reference value="Patient/1291938"/>
    </subject>
    <encounter>
      <reference value="Encounter/768"/>
    </encounter>
    
  </Observation>
  
  </resource>
  <request>
    <method value="POST"/>
    <url value="Observation/768-respiratoryrate"/>
  </request>
</entry>
<entry>
  <resource>
    
    
  <Observation>
  <id value="768-temperature"/>
    <text>
      <status value="generated"/>
      <div xmlns="http://www.w3.org/1999/xhtml">1997-06-18: temperature = 36.16667 Cel</div>
    </text>
    <code>
      <coding>
        <system value="http://loinc.org"/>
        <code value="8310-5"/>
        <display value="temperature"/>
      </coding>
      <text value="temperature"/>
    </code>
    <valueQuantity>
      <value value="36.16667"/>
      <unit value="Cel"/>
      <system value="http://unitsofmeasure.org" />
      <code value="Cel"/>
    </valueQuantity>
    
    <effectiveDateTime value="1997-06-18"/>
    <status value="final"/>
    <subject>
      <reference value="Patient/1291938"/>
    </subject>
    <encounter>
      <reference value="Encounter/768"/>
    </encounter>
    
  </Observation>
  
  </resource>
  <request>
    <method value="POST"/>
    <url value="Observation/768-temperature"/>
  </request>
</entry>
<entry>
  <resource>
    
    
  <Observation>
  <id value="768-weight"/>
    <text>
      <status value="generated"/>
      <div xmlns="http://www.w3.org/1999/xhtml">1997-06-18: weight = 98.52026 kg</div>
    </text>
    <code>
      <coding>
        <system value="http://loinc.org"/>
        <code value="3141-9"/>
        <display value="weight"/>
      </coding>
      <text value="weight"/>
    </code>
    <valueQuantity>
      <value value="98.52026"/>
      <unit value="kg"/>
      <system value="http://unitsofmeasure.org" />
      <code value="kg"/>
    </valueQuantity>
    
    <effectiveDateTime value="1997-06-18"/>
    <status value="final"/>
    <subject>
      <reference value="Patient/1291938"/>
    </subject>
    <encounter>
      <reference value="Encounter/768"/>
    </encounter>
    
  </Observation>
  
  </resource>
  <request>
    <method value="POST"/>
    <url value="Observation/768-weight"/>
  </request>
</entry>
<entry>
  <resource>
    
    
  <Observation>
  <id value="768-bmi"/>
    <text>
      <status value="generated"/>
      <div xmlns="http://www.w3.org/1999/xhtml">1997-06-18: bmi = 32.6 kg/m2</div>
    </text>
    <code>
      <coding>
        <system value="http://loinc.org"/>
        <code value="39156-5"/>
        <display value="bmi"/>
      </coding>
      <text value="bmi"/>
    </code>
    <valueQuantity>
      <value value="32.6"/>
      <unit value="kg/m2"/>
      <system value="http://unitsofmeasure.org" />
      <code value="kg/m2"/>
    </valueQuantity>
    
    <effectiveDateTime value="1997-06-18"/>
    <status value="final"/>
    <subject>
      <reference value="Patient/1291938"/>
    </subject>
    <encounter>
      <reference value="Encounter/768"/>
    </encounter>
    
  </Observation>
  
  </resource>
  <request>
    <method value="POST"/>
    <url value="Observation/768-bmi"/>
  </request>
</entry>
<entry>
  <resource>
    
    
  <Observation>
  <id value="768-oxygensaturation"/>
    <text>
      <status value="generated"/>
      <div xmlns="http://www.w3.org/1999/xhtml">1997-06-18: oxygen_saturation = 96.0 %{HemoglobinSaturation}</div>
    </text>
    <code>
      <coding>
        <system value="http://loinc.org"/>
        <code value="2710-2"/>
        <display value="oxygen_saturation"/>
      </coding>
      <text value="oxygen_saturation"/>
    </code>
    <valueQuantity>
      <value value="96.0"/>
      <unit value="%{HemoglobinSaturation}"/>
      <system value="http://unitsofmeasure.org" />
      <code value="%{HemoglobinSaturation}"/>
    </valueQuantity>
    
    <effectiveDateTime value="1997-06-18"/>
    <status value="final"/>
    <subject>
      <reference value="Patient/1291938"/>
    </subject>
    <encounter>
      <reference value="Encounter/768"/>
    </encounter>
    
  </Observation>
  
  </resource>
  <request>
    <method value="POST"/>
    <url value="Observation/768-oxygensaturation"/>
  </request>
</entry>
<entry>
  <resource>
    
    
  <Observation>
  <id value="769-height"/>
    <text>
      <status value="generated"/>
      <div xmlns="http://www.w3.org/1999/xhtml">1997-06-19: height = 174.244 cm</div>
    </text>
    <code>
      <coding>
        <system value="http://loinc.org"/>
        <code value="8302-2"/>
        <display value="height"/>
      </coding>
      <text value="height"/>
    </code>
    <valueQuantity>
      <value value="174.244"/>
      <unit value="cm"/>
      <system value="http://unitsofmeasure.org" />
      <code value="cm"/>
    </valueQuantity>
    
    <effectiveDateTime value="1997-06-19"/>
    <status value="final"/>
    <subject>
      <reference value="Patient/1291938"/>
    </subject>
    <encounter>
      <reference value="Encounter/769"/>
    </encounter>
    
  </Observation>
  
  </resource>
  <request>
    <method value="POST"/>
    <url value="Observation/769-height"/>
  </request>
</entry>
<entry>
  <resource>
    
    
  <Observation>
  <id value="769-heartrate"/>
    <text>
      <status value="generated"/>
      <div xmlns="http://www.w3.org/1999/xhtml">1997-06-19: heart_rate = 77.0 {beats}/min</div>
    </text>
    <code>
      <coding>
        <system value="http://loinc.org"/>
        <code value="8867-4"/>
        <display value="heart_rate"/>
      </coding>
      <text value="heart_rate"/>
    </code>
    <valueQuantity>
      <value value="77.0"/>
      <unit value="{beats}/min"/>
      <system value="http://unitsofmeasure.org" />
      <code value="{beats}/min"/>
    </valueQuantity>
    
    <effectiveDateTime value="1997-06-19"/>
    <status value="final"/>
    <subject>
      <reference value="Patient/1291938"/>
    </subject>
    <encounter>
      <reference value="Encounter/769"/>
    </encounter>
    
  </Observation>
  
  </resource>
  <request>
    <method value="POST"/>
    <url value="Observation/769-heartrate"/>
  </request>
</entry>
<entry>
  <resource>
    
    
  <Observation>
  <id value="769-respiratoryrate"/>
    <text>
      <status value="generated"/>
      <div xmlns="http://www.w3.org/1999/xhtml">1997-06-19: respiratory_rate = 18.0 {breaths}/min</div>
    </text>
    <code>
      <coding>
        <system value="http://loinc.org"/>
        <code value="9279-1"/>
        <display value="respiratory_rate"/>
      </coding>
      <text value="respiratory_rate"/>
    </code>
    <valueQuantity>
      <value value="18.0"/>
      <unit value="{breaths}/min"/>
      <system value="http://unitsofmeasure.org" />
      <code value="{breaths}/min"/>
    </valueQuantity>
    
    <effectiveDateTime value="1997-06-19"/>
    <status value="final"/>
    <subject>
      <reference value="Patient/1291938"/>
    </subject>
    <encounter>
      <reference value="Encounter/769"/>
    </encounter>
    
  </Observation>
  
  </resource>
  <request>
    <method value="POST"/>
    <url value="Observation/769-respiratoryrate"/>
  </request>
</entry>
<entry>
  <resource>
    
    
  <Observation>
  <id value="769-temperature"/>
    <text>
      <status value="generated"/>
      <div xmlns="http://www.w3.org/1999/xhtml">1997-06-19: temperature = 36.16667 Cel</div>
    </text>
    <code>
      <coding>
        <system value="http://loinc.org"/>
        <code value="8310-5"/>
        <display value="temperature"/>
      </coding>
      <text value="temperature"/>
    </code>
    <valueQuantity>
      <value value="36.16667"/>
      <unit value="Cel"/>
      <system value="http://unitsofmeasure.org" />
      <code value="Cel"/>
    </valueQuantity>
    
    <effectiveDateTime value="1997-06-19"/>
    <status value="final"/>
    <subject>
      <reference value="Patient/1291938"/>
    </subject>
    <encounter>
      <reference value="Encounter/769"/>
    </encounter>
    
  </Observation>
  
  </resource>
  <request>
    <method value="POST"/>
    <url value="Observation/769-temperature"/>
  </request>
</entry>
<entry>
  <resource>
    
    
  <Observation>
  <id value="769-weight"/>
    <text>
      <status value="generated"/>
      <div xmlns="http://www.w3.org/1999/xhtml">1997-06-19: weight = 102.10364 kg</div>
    </text>
    <code>
      <coding>
        <system value="http://loinc.org"/>
        <code value="3141-9"/>
        <display value="weight"/>
      </coding>
      <text value="weight"/>
    </code>
    <valueQuantity>
      <value value="102.10364"/>
      <unit value="kg"/>
      <system value="http://unitsofmeasure.org" />
      <code value="kg"/>
    </valueQuantity>
    
    <effectiveDateTime value="1997-06-19"/>
    <status value="final"/>
    <subject>
      <reference value="Patient/1291938"/>
    </subject>
    <encounter>
      <reference value="Encounter/769"/>
    </encounter>
    
  </Observation>
  
  </resource>
  <request>
    <method value="POST"/>
    <url value="Observation/769-weight"/>
  </request>
</entry>
<entry>
  <resource>
    
    
  <Observation>
  <id value="769-bmi"/>
    <text>
      <status value="generated"/>
      <div xmlns="http://www.w3.org/1999/xhtml">1997-06-19: bmi = 33.9 kg/m2</div>
    </text>
    <code>
      <coding>
        <system value="http://loinc.org"/>
        <code value="39156-5"/>
        <display value="bmi"/>
      </coding>
      <text value="bmi"/>
    </code>
    <valueQuantity>
      <value value="33.9"/>
      <unit value="kg/m2"/>
      <system value="http://unitsofmeasure.org" />
      <code value="kg/m2"/>
    </valueQuantity>
    
    <effectiveDateTime value="1997-06-19"/>
    <status value="final"/>
    <subject>
      <reference value="Patient/1291938"/>
    </subject>
    <encounter>
      <reference value="Encounter/769"/>
    </encounter>
    
  </Observation>
  
  </resource>
  <request>
    <method value="POST"/>
    <url value="Observation/769-bmi"/>
  </request>
</entry>
<entry>
  <resource>
    
    
  <Observation>
  <id value="769-oxygensaturation"/>
    <text>
      <status value="generated"/>
      <div xmlns="http://www.w3.org/1999/xhtml">1997-06-19: oxygen_saturation = 96.0 %{HemoglobinSaturation}</div>
    </text>
    <code>
      <coding>
        <system value="http://loinc.org"/>
        <code value="2710-2"/>
        <display value="oxygen_saturation"/>
      </coding>
      <text value="oxygen_saturation"/>
    </code>
    <valueQuantity>
      <value value="96.0"/>
      <unit value="%{HemoglobinSaturation}"/>
      <system value="http://unitsofmeasure.org" />
      <code value="%{HemoglobinSaturation}"/>
    </valueQuantity>
    
    <effectiveDateTime value="1997-06-19"/>
    <status value="final"/>
    <subject>
      <reference value="Patient/1291938"/>
    </subject>
    <encounter>
      <reference value="Encounter/769"/>
    </encounter>
    
  </Observation>
  
  </resource>
  <request>
    <method value="POST"/>
    <url value="Observation/769-oxygensaturation"/>
  </request>
</entry>
<entry>
  <resource>
    
    
  <Observation>
  <id value="770-height"/>
    <text>
      <status value="generated"/>
      <div xmlns="http://www.w3.org/1999/xhtml">1997-06-20: height = 173.482 cm</div>
    </text>
    <code>
      <coding>
        <system value="http://loinc.org"/>
        <code value="8302-2"/>
        <display value="height"/>
      </coding>
      <text value="height"/>
    </code>
    <valueQuantity>
      <value value="173.482"/>
      <unit value="cm"/>
      <system value="http://unitsofmeasure.org" />
      <code value="cm"/>
    </valueQuantity>
    
    <effectiveDateTime value="1997-06-20"/>
    <status value="final"/>
    <subject>
      <reference value="Patient/1291938"/>
    </subject>
    <encounter>
      <reference value="Encounter/770"/>
    </encounter>
    
  </Observation>
  
  </resource>
  <request>
    <method value="POST"/>
    <url value="Observation/770-height"/>
  </request>
</entry>
<entry>
  <resource>
    
    
  <Observation>
  <id value="770-heartrate"/>
    <text>
      <status value="generated"/>
      <div xmlns="http://www.w3.org/1999/xhtml">1997-06-20: heart_rate = 75.0 {beats}/min</div>
    </text>
    <code>
      <coding>
        <system value="http://loinc.org"/>
        <code value="8867-4"/>
        <display value="heart_rate"/>
      </coding>
      <text value="heart_rate"/>
    </code>
    <valueQuantity>
      <value value="75.0"/>
      <unit value="{beats}/min"/>
      <system value="http://unitsofmeasure.org" />
      <code value="{beats}/min"/>
    </valueQuantity>
    
    <effectiveDateTime value="1997-06-20"/>
    <status value="final"/>
    <subject>
      <reference value="Patient/1291938"/>
    </subject>
    <encounter>
      <reference value="Encounter/770"/>
    </encounter>
    
  </Observation>
  
  </resource>
  <request>
    <method value="POST"/>
    <url value="Observation/770-heartrate"/>
  </request>
</entry>
<entry>
  <resource>
    
    
  <Observation>
  <id value="770-respiratoryrate"/>
    <text>
      <status value="generated"/>
      <div xmlns="http://www.w3.org/1999/xhtml">1997-06-20: respiratory_rate = 18.0 {breaths}/min</div>
    </text>
    <code>
      <coding>
        <system value="http://loinc.org"/>
        <code value="9279-1"/>
        <display value="respiratory_rate"/>
      </coding>
      <text value="respiratory_rate"/>
    </code>
    <valueQuantity>
      <value value="18.0"/>
      <unit value="{breaths}/min"/>
      <system value="http://unitsofmeasure.org" />
      <code value="{breaths}/min"/>
    </valueQuantity>
    
    <effectiveDateTime value="1997-06-20"/>
    <status value="final"/>
    <subject>
      <reference value="Patient/1291938"/>
    </subject>
    <encounter>
      <reference value="Encounter/770"/>
    </encounter>
    
  </Observation>
  
  </resource>
  <request>
    <method value="POST"/>
    <url value="Observation/770-respiratoryrate"/>
  </request>
</entry>
<entry>
  <resource>
    
    
  <Observation>
  <id value="770-temperature"/>
    <text>
      <status value="generated"/>
      <div xmlns="http://www.w3.org/1999/xhtml">1997-06-20: temperature = 36.11111 Cel</div>
    </text>
    <code>
      <coding>
        <system value="http://loinc.org"/>
        <code value="8310-5"/>
        <display value="temperature"/>
      </coding>
      <text value="temperature"/>
    </code>
    <valueQuantity>
      <value value="36.11111"/>
      <unit value="Cel"/>
      <system value="http://unitsofmeasure.org" />
      <code value="Cel"/>
    </valueQuantity>
    
    <effectiveDateTime value="1997-06-20"/>
    <status value="final"/>
    <subject>
      <reference value="Patient/1291938"/>
    </subject>
    <encounter>
      <reference value="Encounter/770"/>
    </encounter>
    
  </Observation>
  
  </resource>
  <request>
    <method value="POST"/>
    <url value="Observation/770-temperature"/>
  </request>
</entry>
<entry>
  <resource>
    
    
  <Observation>
  <id value="770-weight"/>
    <text>
      <status value="generated"/>
      <div xmlns="http://www.w3.org/1999/xhtml">1997-06-20: weight = 98.61098 kg</div>
    </text>
    <code>
      <coding>
        <system value="http://loinc.org"/>
        <code value="3141-9"/>
        <display value="weight"/>
      </coding>
      <text value="weight"/>
    </code>
    <valueQuantity>
      <value value="98.61098"/>
      <unit value="kg"/>
      <system value="http://unitsofmeasure.org" />
      <code value="kg"/>
    </valueQuantity>
    
    <effectiveDateTime value="1997-06-20"/>
    <status value="final"/>
    <subject>
      <reference value="Patient/1291938"/>
    </subject>
    <encounter>
      <reference value="Encounter/770"/>
    </encounter>
    
  </Observation>
  
  </resource>
  <request>
    <method value="POST"/>
    <url value="Observation/770-weight"/>
  </request>
</entry>
<entry>
  <resource>
    
    
  <Observation>
  <id value="770-bmi"/>
    <text>
      <status value="generated"/>
      <div xmlns="http://www.w3.org/1999/xhtml">1997-06-20: bmi = 32.7 kg/m2</div>
    </text>
    <code>
      <coding>
        <system value="http://loinc.org"/>
        <code value="39156-5"/>
        <display value="bmi"/>
      </coding>
      <text value="bmi"/>
    </code>
    <valueQuantity>
      <value value="32.7"/>
      <unit value="kg/m2"/>
      <system value="http://unitsofmeasure.org" />
      <code value="kg/m2"/>
    </valueQuantity>
    
    <effectiveDateTime value="1997-06-20"/>
    <status value="final"/>
    <subject>
      <reference value="Patient/1291938"/>
    </subject>
    <encounter>
      <reference value="Encounter/770"/>
    </encounter>
    
  </Observation>
  
  </resource>
  <request>
    <method value="POST"/>
    <url value="Observation/770-bmi"/>
  </request>
</entry>
<entry>
  <resource>
    
    
  <Observation>
  <id value="770-oxygensaturation"/>
    <text>
      <status value="generated"/>
      <div xmlns="http://www.w3.org/1999/xhtml">1997-06-20: oxygen_saturation = 96.0 %{HemoglobinSaturation}</div>
    </text>
    <code>
      <coding>
        <system value="http://loinc.org"/>
        <code value="2710-2"/>
        <display value="oxygen_saturation"/>
      </coding>
      <text value="oxygen_saturation"/>
    </code>
    <valueQuantity>
      <value value="96.0"/>
      <unit value="%{HemoglobinSaturation}"/>
      <system value="http://unitsofmeasure.org" />
      <code value="%{HemoglobinSaturation}"/>
    </valueQuantity>
    
    <effectiveDateTime value="1997-06-20"/>
    <status value="final"/>
    <subject>
      <reference value="Patient/1291938"/>
    </subject>
    <encounter>
      <reference value="Encounter/770"/>
    </encounter>
    
  </Observation>
  
  </resource>
  <request>
    <method value="POST"/>
    <url value="Observation/770-oxygensaturation"/>
  </request>
</entry>
<entry>
  <resource>
    
    
  <Observation>
  <id value="771-height"/>
    <text>
      <status value="generated"/>
      <div xmlns="http://www.w3.org/1999/xhtml">1997-10-27: height = 173.736 cm</div>
    </text>
    <code>
      <coding>
        <system value="http://loinc.org"/>
        <code value="8302-2"/>
        <display value="height"/>
      </coding>
      <text value="height"/>
    </code>
    <valueQuantity>
      <value value="173.736"/>
      <unit value="cm"/>
      <system value="http://unitsofmeasure.org" />
      <code value="cm"/>
    </valueQuantity>
    
    <effectiveDateTime value="1997-10-27"/>
    <status value="final"/>
    <subject>
      <reference value="Patient/1291938"/>
    </subject>
    <encounter>
      <reference value="Encounter/771"/>
    </encounter>
    
  </Observation>
  
  </resource>
  <request>
    <method value="POST"/>
    <url value="Observation/771-height"/>
  </request>
</entry>
<entry>
  <resource>
    
    
  <Observation>
  <id value="771-heartrate"/>
    <text>
      <status value="generated"/>
      <div xmlns="http://www.w3.org/1999/xhtml">1997-10-27: heart_rate = 76.0 {beats}/min</div>
    </text>
    <code>
      <coding>
        <system value="http://loinc.org"/>
        <code value="8867-4"/>
        <display value="heart_rate"/>
      </coding>
      <text value="heart_rate"/>
    </code>
    <valueQuantity>
      <value value="76.0"/>
      <unit value="{beats}/min"/>
      <system value="http://unitsofmeasure.org" />
      <code value="{beats}/min"/>
    </valueQuantity>
    
    <effectiveDateTime value="1997-10-27"/>
    <status value="final"/>
    <subject>
      <reference value="Patient/1291938"/>
    </subject>
    <encounter>
      <reference value="Encounter/771"/>
    </encounter>
    
  </Observation>
  
  </resource>
  <request>
    <method value="POST"/>
    <url value="Observation/771-heartrate"/>
  </request>
</entry>
<entry>
  <resource>
    
    
  <Observation>
  <id value="771-respiratoryrate"/>
    <text>
      <status value="generated"/>
      <div xmlns="http://www.w3.org/1999/xhtml">1997-10-27: respiratory_rate = 18.0 {breaths}/min</div>
    </text>
    <code>
      <coding>
        <system value="http://loinc.org"/>
        <code value="9279-1"/>
        <display value="respiratory_rate"/>
      </coding>
      <text value="respiratory_rate"/>
    </code>
    <valueQuantity>
      <value value="18.0"/>
      <unit value="{breaths}/min"/>
      <system value="http://unitsofmeasure.org" />
      <code value="{breaths}/min"/>
    </valueQuantity>
    
    <effectiveDateTime value="1997-10-27"/>
    <status value="final"/>
    <subject>
      <reference value="Patient/1291938"/>
    </subject>
    <encounter>
      <reference value="Encounter/771"/>
    </encounter>
    
  </Observation>
  
  </resource>
  <request>
    <method value="POST"/>
    <url value="Observation/771-respiratoryrate"/>
  </request>
</entry>
<entry>
  <resource>
    
    
  <Observation>
  <id value="771-temperature"/>
    <text>
      <status value="generated"/>
      <div xmlns="http://www.w3.org/1999/xhtml">1997-10-27: temperature = 36.11111 Cel</div>
    </text>
    <code>
      <coding>
        <system value="http://loinc.org"/>
        <code value="8310-5"/>
        <display value="temperature"/>
      </coding>
      <text value="temperature"/>
    </code>
    <valueQuantity>
      <value value="36.11111"/>
      <unit value="Cel"/>
      <system value="http://unitsofmeasure.org" />
      <code value="Cel"/>
    </valueQuantity>
    
    <effectiveDateTime value="1997-10-27"/>
    <status value="final"/>
    <subject>
      <reference value="Patient/1291938"/>
    </subject>
    <encounter>
      <reference value="Encounter/771"/>
    </encounter>
    
  </Observation>
  
  </resource>
  <request>
    <method value="POST"/>
    <url value="Observation/771-temperature"/>
  </request>
</entry>
<entry>
  <resource>
    
    
  <Observation>
  <id value="771-weight"/>
    <text>
      <status value="generated"/>
      <div xmlns="http://www.w3.org/1999/xhtml">1997-10-27: weight = 99.74496 kg</div>
    </text>
    <code>
      <coding>
        <system value="http://loinc.org"/>
        <code value="3141-9"/>
        <display value="weight"/>
      </coding>
      <text value="weight"/>
    </code>
    <valueQuantity>
      <value value="99.74496"/>
      <unit value="kg"/>
      <system value="http://unitsofmeasure.org" />
      <code value="kg"/>
    </valueQuantity>
    
    <effectiveDateTime value="1997-10-27"/>
    <status value="final"/>
    <subject>
      <reference value="Patient/1291938"/>
    </subject>
    <encounter>
      <reference value="Encounter/771"/>
    </encounter>
    
  </Observation>
  
  </resource>
  <request>
    <method value="POST"/>
    <url value="Observation/771-weight"/>
  </request>
</entry>
<entry>
  <resource>
    
    
  <Observation>
  <id value="771-bmi"/>
    <text>
      <status value="generated"/>
      <div xmlns="http://www.w3.org/1999/xhtml">1997-10-27: bmi = 33.0 kg/m2</div>
    </text>
    <code>
      <coding>
        <system value="http://loinc.org"/>
        <code value="39156-5"/>
        <display value="bmi"/>
      </coding>
      <text value="bmi"/>
    </code>
    <valueQuantity>
      <value value="33.0"/>
      <unit value="kg/m2"/>
      <system value="http://unitsofmeasure.org" />
      <code value="kg/m2"/>
    </valueQuantity>
    
    <effectiveDateTime value="1997-10-27"/>
    <status value="final"/>
    <subject>
      <reference value="Patient/1291938"/>
    </subject>
    <encounter>
      <reference value="Encounter/771"/>
    </encounter>
    
  </Observation>
  
  </resource>
  <request>
    <method value="POST"/>
    <url value="Observation/771-bmi"/>
  </request>
</entry>
<entry>
  <resource>
    
    
  <Observation>
  <id value="771-oxygensaturation"/>
    <text>
      <status value="generated"/>
      <div xmlns="http://www.w3.org/1999/xhtml">1997-10-27: oxygen_saturation = 96.0 %{HemoglobinSaturation}</div>
    </text>
    <code>
      <coding>
        <system value="http://loinc.org"/>
        <code value="2710-2"/>
        <display value="oxygen_saturation"/>
      </coding>
      <text value="oxygen_saturation"/>
    </code>
    <valueQuantity>
      <value value="96.0"/>
      <unit value="%{HemoglobinSaturation}"/>
      <system value="http://unitsofmeasure.org" />
      <code value="%{HemoglobinSaturation}"/>
    </valueQuantity>
    
    <effectiveDateTime value="1997-10-27"/>
    <status value="final"/>
    <subject>
      <reference value="Patient/1291938"/>
    </subject>
    <encounter>
      <reference value="Encounter/771"/>
    </encounter>
    
  </Observation>
  
  </resource>
  <request>
    <method value="POST"/>
    <url value="Observation/771-oxygensaturation"/>
  </request>
</entry>
<entry>
  <resource>
    
    
  <Observation>
  <id value="772-height"/>
    <text>
      <status value="generated"/>
      <div xmlns="http://www.w3.org/1999/xhtml">1997-10-28: height = 173.99 cm</div>
    </text>
    <code>
      <coding>
        <system value="http://loinc.org"/>
        <code value="8302-2"/>
        <display value="height"/>
      </coding>
      <text value="height"/>
    </code>
    <valueQuantity>
      <value value="173.99"/>
      <unit value="cm"/>
      <system value="http://unitsofmeasure.org" />
      <code value="cm"/>
    </valueQuantity>
    
    <effectiveDateTime value="1997-10-28"/>
    <status value="final"/>
    <subject>
      <reference value="Patient/1291938"/>
    </subject>
    <encounter>
      <reference value="Encounter/772"/>
    </encounter>
    
  </Observation>
  
  </resource>
  <request>
    <method value="POST"/>
    <url value="Observation/772-height"/>
  </request>
</entry>
<entry>
  <resource>
    
    
  <Observation>
  <id value="772-heartrate"/>
    <text>
      <status value="generated"/>
      <div xmlns="http://www.w3.org/1999/xhtml">1997-10-28: heart_rate = 76.0 {beats}/min</div>
    </text>
    <code>
      <coding>
        <system value="http://loinc.org"/>
        <code value="8867-4"/>
        <display value="heart_rate"/>
      </coding>
      <text value="heart_rate"/>
    </code>
    <valueQuantity>
      <value value="76.0"/>
      <unit value="{beats}/min"/>
      <system value="http://unitsofmeasure.org" />
      <code value="{beats}/min"/>
    </valueQuantity>
    
    <effectiveDateTime value="1997-10-28"/>
    <status value="final"/>
    <subject>
      <reference value="Patient/1291938"/>
    </subject>
    <encounter>
      <reference value="Encounter/772"/>
    </encounter>
    
  </Observation>
  
  </resource>
  <request>
    <method value="POST"/>
    <url value="Observation/772-heartrate"/>
  </request>
</entry>
<entry>
  <resource>
    
    
  <Observation>
  <id value="772-respiratoryrate"/>
    <text>
      <status value="generated"/>
      <div xmlns="http://www.w3.org/1999/xhtml">1997-10-28: respiratory_rate = 18.0 {breaths}/min</div>
    </text>
    <code>
      <coding>
        <system value="http://loinc.org"/>
        <code value="9279-1"/>
        <display value="respiratory_rate"/>
      </coding>
      <text value="respiratory_rate"/>
    </code>
    <valueQuantity>
      <value value="18.0"/>
      <unit value="{breaths}/min"/>
      <system value="http://unitsofmeasure.org" />
      <code value="{breaths}/min"/>
    </valueQuantity>
    
    <effectiveDateTime value="1997-10-28"/>
    <status value="final"/>
    <subject>
      <reference value="Patient/1291938"/>
    </subject>
    <encounter>
      <reference value="Encounter/772"/>
    </encounter>
    
  </Observation>
  
  </resource>
  <request>
    <method value="POST"/>
    <url value="Observation/772-respiratoryrate"/>
  </request>
</entry>
<entry>
  <resource>
    
    
  <Observation>
  <id value="772-temperature"/>
    <text>
      <status value="generated"/>
      <div xmlns="http://www.w3.org/1999/xhtml">1997-10-28: temperature = 36.16667 Cel</div>
    </text>
    <code>
      <coding>
        <system value="http://loinc.org"/>
        <code value="8310-5"/>
        <display value="temperature"/>
      </coding>
      <text value="temperature"/>
    </code>
    <valueQuantity>
      <value value="36.16667"/>
      <unit value="Cel"/>
      <system value="http://unitsofmeasure.org" />
      <code value="Cel"/>
    </valueQuantity>
    
    <effectiveDateTime value="1997-10-28"/>
    <status value="final"/>
    <subject>
      <reference value="Patient/1291938"/>
    </subject>
    <encounter>
      <reference value="Encounter/772"/>
    </encounter>
    
  </Observation>
  
  </resource>
  <request>
    <method value="POST"/>
    <url value="Observation/772-temperature"/>
  </request>
</entry>
<entry>
  <resource>
    
    
  <Observation>
  <id value="772-weight"/>
    <text>
      <status value="generated"/>
      <div xmlns="http://www.w3.org/1999/xhtml">1997-10-28: weight = 97.20484 kg</div>
    </text>
    <code>
      <coding>
        <system value="http://loinc.org"/>
        <code value="3141-9"/>
        <display value="weight"/>
      </coding>
      <text value="weight"/>
    </code>
    <valueQuantity>
      <value value="97.20484"/>
      <unit value="kg"/>
      <system value="http://unitsofmeasure.org" />
      <code value="kg"/>
    </valueQuantity>
    
    <effectiveDateTime value="1997-10-28"/>
    <status value="final"/>
    <subject>
      <reference value="Patient/1291938"/>
    </subject>
    <encounter>
      <reference value="Encounter/772"/>
    </encounter>
    
  </Observation>
  
  </resource>
  <request>
    <method value="POST"/>
    <url value="Observation/772-weight"/>
  </request>
</entry>
<entry>
  <resource>
    
    
  <Observation>
  <id value="772-bmi"/>
    <text>
      <status value="generated"/>
      <div xmlns="http://www.w3.org/1999/xhtml">1997-10-28: bmi = 32.1 kg/m2</div>
    </text>
    <code>
      <coding>
        <system value="http://loinc.org"/>
        <code value="39156-5"/>
        <display value="bmi"/>
      </coding>
      <text value="bmi"/>
    </code>
    <valueQuantity>
      <value value="32.1"/>
      <unit value="kg/m2"/>
      <system value="http://unitsofmeasure.org" />
      <code value="kg/m2"/>
    </valueQuantity>
    
    <effectiveDateTime value="1997-10-28"/>
    <status value="final"/>
    <subject>
      <reference value="Patient/1291938"/>
    </subject>
    <encounter>
      <reference value="Encounter/772"/>
    </encounter>
    
  </Observation>
  
  </resource>
  <request>
    <method value="POST"/>
    <url value="Observation/772-bmi"/>
  </request>
</entry>
<entry>
  <resource>
    
    
  <Observation>
  <id value="772-oxygensaturation"/>
    <text>
      <status value="generated"/>
      <div xmlns="http://www.w3.org/1999/xhtml">1997-10-28: oxygen_saturation = 96.0 %{HemoglobinSaturation}</div>
    </text>
    <code>
      <coding>
        <system value="http://loinc.org"/>
        <code value="2710-2"/>
        <display value="oxygen_saturation"/>
      </coding>
      <text value="oxygen_saturation"/>
    </code>
    <valueQuantity>
      <value value="96.0"/>
      <unit value="%{HemoglobinSaturation}"/>
      <system value="http://unitsofmeasure.org" />
      <code value="%{HemoglobinSaturation}"/>
    </valueQuantity>
    
    <effectiveDateTime value="1997-10-28"/>
    <status value="final"/>
    <subject>
      <reference value="Patient/1291938"/>
    </subject>
    <encounter>
      <reference value="Encounter/772"/>
    </encounter>
    
  </Observation>
  
  </resource>
  <request>
    <method value="POST"/>
    <url value="Observation/772-oxygensaturation"/>
  </request>
</entry>
<entry>
  <resource>
    
    
  <Observation>
  <id value="773-height"/>
    <text>
      <status value="generated"/>
      <div xmlns="http://www.w3.org/1999/xhtml">1997-10-29: height = 173.482 cm</div>
    </text>
    <code>
      <coding>
        <system value="http://loinc.org"/>
        <code value="8302-2"/>
        <display value="height"/>
      </coding>
      <text value="height"/>
    </code>
    <valueQuantity>
      <value value="173.482"/>
      <unit value="cm"/>
      <system value="http://unitsofmeasure.org" />
      <code value="cm"/>
    </valueQuantity>
    
    <effectiveDateTime value="1997-10-29"/>
    <status value="final"/>
    <subject>
      <reference value="Patient/1291938"/>
    </subject>
    <encounter>
      <reference value="Encounter/773"/>
    </encounter>
    
  </Observation>
  
  </resource>
  <request>
    <method value="POST"/>
    <url value="Observation/773-height"/>
  </request>
</entry>
<entry>
  <resource>
    
    
  <Observation>
  <id value="773-heartrate"/>
    <text>
      <status value="generated"/>
      <div xmlns="http://www.w3.org/1999/xhtml">1997-10-29: heart_rate = 76.0 {beats}/min</div>
    </text>
    <code>
      <coding>
        <system value="http://loinc.org"/>
        <code value="8867-4"/>
        <display value="heart_rate"/>
      </coding>
      <text value="heart_rate"/>
    </code>
    <valueQuantity>
      <value value="76.0"/>
      <unit value="{beats}/min"/>
      <system value="http://unitsofmeasure.org" />
      <code value="{beats}/min"/>
    </valueQuantity>
    
    <effectiveDateTime value="1997-10-29"/>
    <status value="final"/>
    <subject>
      <reference value="Patient/1291938"/>
    </subject>
    <encounter>
      <reference value="Encounter/773"/>
    </encounter>
    
  </Observation>
  
  </resource>
  <request>
    <method value="POST"/>
    <url value="Observation/773-heartrate"/>
  </request>
</entry>
<entry>
  <resource>
    
    
  <Observation>
  <id value="773-respiratoryrate"/>
    <text>
      <status value="generated"/>
      <div xmlns="http://www.w3.org/1999/xhtml">1997-10-29: respiratory_rate = 18.0 {breaths}/min</div>
    </text>
    <code>
      <coding>
        <system value="http://loinc.org"/>
        <code value="9279-1"/>
        <display value="respiratory_rate"/>
      </coding>
      <text value="respiratory_rate"/>
    </code>
    <valueQuantity>
      <value value="18.0"/>
      <unit value="{breaths}/min"/>
      <system value="http://unitsofmeasure.org" />
      <code value="{breaths}/min"/>
    </valueQuantity>
    
    <effectiveDateTime value="1997-10-29"/>
    <status value="final"/>
    <subject>
      <reference value="Patient/1291938"/>
    </subject>
    <encounter>
      <reference value="Encounter/773"/>
    </encounter>
    
  </Observation>
  
  </resource>
  <request>
    <method value="POST"/>
    <url value="Observation/773-respiratoryrate"/>
  </request>
</entry>
<entry>
  <resource>
    
    
  <Observation>
  <id value="773-temperature"/>
    <text>
      <status value="generated"/>
      <div xmlns="http://www.w3.org/1999/xhtml">1997-10-29: temperature = 36.11111 Cel</div>
    </text>
    <code>
      <coding>
        <system value="http://loinc.org"/>
        <code value="8310-5"/>
        <display value="temperature"/>
      </coding>
      <text value="temperature"/>
    </code>
    <valueQuantity>
      <value value="36.11111"/>
      <unit value="Cel"/>
      <system value="http://unitsofmeasure.org" />
      <code value="Cel"/>
    </valueQuantity>
    
    <effectiveDateTime value="1997-10-29"/>
    <status value="final"/>
    <subject>
      <reference value="Patient/1291938"/>
    </subject>
    <encounter>
      <reference value="Encounter/773"/>
    </encounter>
    
  </Observation>
  
  </resource>
  <request>
    <method value="POST"/>
    <url value="Observation/773-temperature"/>
  </request>
</entry>
<entry>
  <resource>
    
    
  <Observation>
  <id value="773-weight"/>
    <text>
      <status value="generated"/>
      <div xmlns="http://www.w3.org/1999/xhtml">1997-10-29: weight = 96.4791 kg</div>
    </text>
    <code>
      <coding>
        <system value="http://loinc.org"/>
        <code value="3141-9"/>
        <display value="weight"/>
      </coding>
      <text value="weight"/>
    </code>
    <valueQuantity>
      <value value="96.4791"/>
      <unit value="kg"/>
      <system value="http://unitsofmeasure.org" />
      <code value="kg"/>
    </valueQuantity>
    
    <effectiveDateTime value="1997-10-29"/>
    <status value="final"/>
    <subject>
      <reference value="Patient/1291938"/>
    </subject>
    <encounter>
      <reference value="Encounter/773"/>
    </encounter>
    
  </Observation>
  
  </resource>
  <request>
    <method value="POST"/>
    <url value="Observation/773-weight"/>
  </request>
</entry>
<entry>
  <resource>
    
    
  <Observation>
  <id value="773-bmi"/>
    <text>
      <status value="generated"/>
      <div xmlns="http://www.w3.org/1999/xhtml">1997-10-29: bmi = 32.0 kg/m2</div>
    </text>
    <code>
      <coding>
        <system value="http://loinc.org"/>
        <code value="39156-5"/>
        <display value="bmi"/>
      </coding>
      <text value="bmi"/>
    </code>
    <valueQuantity>
      <value value="32.0"/>
      <unit value="kg/m2"/>
      <system value="http://unitsofmeasure.org" />
      <code value="kg/m2"/>
    </valueQuantity>
    
    <effectiveDateTime value="1997-10-29"/>
    <status value="final"/>
    <subject>
      <reference value="Patient/1291938"/>
    </subject>
    <encounter>
      <reference value="Encounter/773"/>
    </encounter>
    
  </Observation>
  
  </resource>
  <request>
    <method value="POST"/>
    <url value="Observation/773-bmi"/>
  </request>
</entry>
<entry>
  <resource>
    
    
  <Observation>
  <id value="773-oxygensaturation"/>
    <text>
      <status value="generated"/>
      <div xmlns="http://www.w3.org/1999/xhtml">1997-10-29: oxygen_saturation = 96.0 %{HemoglobinSaturation}</div>
    </text>
    <code>
      <coding>
        <system value="http://loinc.org"/>
        <code value="2710-2"/>
        <display value="oxygen_saturation"/>
      </coding>
      <text value="oxygen_saturation"/>
    </code>
    <valueQuantity>
      <value value="96.0"/>
      <unit value="%{HemoglobinSaturation}"/>
      <system value="http://unitsofmeasure.org" />
      <code value="%{HemoglobinSaturation}"/>
    </valueQuantity>
    
    <effectiveDateTime value="1997-10-29"/>
    <status value="final"/>
    <subject>
      <reference value="Patient/1291938"/>
    </subject>
    <encounter>
      <reference value="Encounter/773"/>
    </encounter>
    
  </Observation>
  
  </resource>
  <request>
    <method value="POST"/>
    <url value="Observation/773-oxygensaturation"/>
  </request>
</entry>
<entry>
  <resource>
    
    
  <Observation>
  <id value="774-height"/>
    <text>
      <status value="generated"/>
      <div xmlns="http://www.w3.org/1999/xhtml">1999-05-27: height = 174.498 cm</div>
    </text>
    <code>
      <coding>
        <system value="http://loinc.org"/>
        <code value="8302-2"/>
        <display value="height"/>
      </coding>
      <text value="height"/>
    </code>
    <valueQuantity>
      <value value="174.498"/>
      <unit value="cm"/>
      <system value="http://unitsofmeasure.org" />
      <code value="cm"/>
    </valueQuantity>
    
    <effectiveDateTime value="1999-05-27"/>
    <status value="final"/>
    <subject>
      <reference value="Patient/1291938"/>
    </subject>
    <encounter>
      <reference value="Encounter/774"/>
    </encounter>
    
  </Observation>
  
  </resource>
  <request>
    <method value="POST"/>
    <url value="Observation/774-height"/>
  </request>
</entry>
<entry>
  <resource>
    
    
  <Observation>
  <id value="774-heartrate"/>
    <text>
      <status value="generated"/>
      <div xmlns="http://www.w3.org/1999/xhtml">1999-05-27: heart_rate = 75.0 {beats}/min</div>
    </text>
    <code>
      <coding>
        <system value="http://loinc.org"/>
        <code value="8867-4"/>
        <display value="heart_rate"/>
      </coding>
      <text value="heart_rate"/>
    </code>
    <valueQuantity>
      <value value="75.0"/>
      <unit value="{beats}/min"/>
      <system value="http://unitsofmeasure.org" />
      <code value="{beats}/min"/>
    </valueQuantity>
    
    <effectiveDateTime value="1999-05-27"/>
    <status value="final"/>
    <subject>
      <reference value="Patient/1291938"/>
    </subject>
    <encounter>
      <reference value="Encounter/774"/>
    </encounter>
    
  </Observation>
  
  </resource>
  <request>
    <method value="POST"/>
    <url value="Observation/774-heartrate"/>
  </request>
</entry>
<entry>
  <resource>
    
    
  <Observation>
  <id value="774-respiratoryrate"/>
    <text>
      <status value="generated"/>
      <div xmlns="http://www.w3.org/1999/xhtml">1999-05-27: respiratory_rate = 18.0 {breaths}/min</div>
    </text>
    <code>
      <coding>
        <system value="http://loinc.org"/>
        <code value="9279-1"/>
        <display value="respiratory_rate"/>
      </coding>
      <text value="respiratory_rate"/>
    </code>
    <valueQuantity>
      <value value="18.0"/>
      <unit value="{breaths}/min"/>
      <system value="http://unitsofmeasure.org" />
      <code value="{breaths}/min"/>
    </valueQuantity>
    
    <effectiveDateTime value="1999-05-27"/>
    <status value="final"/>
    <subject>
      <reference value="Patient/1291938"/>
    </subject>
    <encounter>
      <reference value="Encounter/774"/>
    </encounter>
    
  </Observation>
  
  </resource>
  <request>
    <method value="POST"/>
    <url value="Observation/774-respiratoryrate"/>
  </request>
</entry>
<entry>
  <resource>
    
    
  <Observation>
  <id value="774-temperature"/>
    <text>
      <status value="generated"/>
      <div xmlns="http://www.w3.org/1999/xhtml">1999-05-27: temperature = 36.11111 Cel</div>
    </text>
    <code>
      <coding>
        <system value="http://loinc.org"/>
        <code value="8310-5"/>
        <display value="temperature"/>
      </coding>
      <text value="temperature"/>
    </code>
    <valueQuantity>
      <value value="36.11111"/>
      <unit value="Cel"/>
      <system value="http://unitsofmeasure.org" />
      <code value="Cel"/>
    </valueQuantity>
    
    <effectiveDateTime value="1999-05-27"/>
    <status value="final"/>
    <subject>
      <reference value="Patient/1291938"/>
    </subject>
    <encounter>
      <reference value="Encounter/774"/>
    </encounter>
    
  </Observation>
  
  </resource>
  <request>
    <method value="POST"/>
    <url value="Observation/774-temperature"/>
  </request>
</entry>
<entry>
  <resource>
    
    
  <Observation>
  <id value="774-weight"/>
    <text>
      <status value="generated"/>
      <div xmlns="http://www.w3.org/1999/xhtml">1999-05-27: weight = 100.01712 kg</div>
    </text>
    <code>
      <coding>
        <system value="http://loinc.org"/>
        <code value="3141-9"/>
        <display value="weight"/>
      </coding>
      <text value="weight"/>
    </code>
    <valueQuantity>
      <value value="100.01712"/>
      <unit value="kg"/>
      <system value="http://unitsofmeasure.org" />
      <code value="kg"/>
    </valueQuantity>
    
    <effectiveDateTime value="1999-05-27"/>
    <status value="final"/>
    <subject>
      <reference value="Patient/1291938"/>
    </subject>
    <encounter>
      <reference value="Encounter/774"/>
    </encounter>
    
  </Observation>
  
  </resource>
  <request>
    <method value="POST"/>
    <url value="Observation/774-weight"/>
  </request>
</entry>
<entry>
  <resource>
    
    
  <Observation>
  <id value="774-bmi"/>
    <text>
      <status value="generated"/>
      <div xmlns="http://www.w3.org/1999/xhtml">1999-05-27: bmi = 32.9 kg/m2</div>
    </text>
    <code>
      <coding>
        <system value="http://loinc.org"/>
        <code value="39156-5"/>
        <display value="bmi"/>
      </coding>
      <text value="bmi"/>
    </code>
    <valueQuantity>
      <value value="32.9"/>
      <unit value="kg/m2"/>
      <system value="http://unitsofmeasure.org" />
      <code value="kg/m2"/>
    </valueQuantity>
    
    <effectiveDateTime value="1999-05-27"/>
    <status value="final"/>
    <subject>
      <reference value="Patient/1291938"/>
    </subject>
    <encounter>
      <reference value="Encounter/774"/>
    </encounter>
    
  </Observation>
  
  </resource>
  <request>
    <method value="POST"/>
    <url value="Observation/774-bmi"/>
  </request>
</entry>
<entry>
  <resource>
    
    
  <Observation>
  <id value="774-oxygensaturation"/>
    <text>
      <status value="generated"/>
      <div xmlns="http://www.w3.org/1999/xhtml">1999-05-27: oxygen_saturation = 97.0 %{HemoglobinSaturation}</div>
    </text>
    <code>
      <coding>
        <system value="http://loinc.org"/>
        <code value="2710-2"/>
        <display value="oxygen_saturation"/>
      </coding>
      <text value="oxygen_saturation"/>
    </code>
    <valueQuantity>
      <value value="97.0"/>
      <unit value="%{HemoglobinSaturation}"/>
      <system value="http://unitsofmeasure.org" />
      <code value="%{HemoglobinSaturation}"/>
    </valueQuantity>
    
    <effectiveDateTime value="1999-05-27"/>
    <status value="final"/>
    <subject>
      <reference value="Patient/1291938"/>
    </subject>
    <encounter>
      <reference value="Encounter/774"/>
    </encounter>
    
  </Observation>
  
  </resource>
  <request>
    <method value="POST"/>
    <url value="Observation/774-oxygensaturation"/>
  </request>
</entry>
<entry>
  <resource>
    
    
  <Observation>
  <id value="775-height"/>
    <text>
      <status value="generated"/>
      <div xmlns="http://www.w3.org/1999/xhtml">1999-05-28: height = 174.498 cm</div>
    </text>
    <code>
      <coding>
        <system value="http://loinc.org"/>
        <code value="8302-2"/>
        <display value="height"/>
      </coding>
      <text value="height"/>
    </code>
    <valueQuantity>
      <value value="174.498"/>
      <unit value="cm"/>
      <system value="http://unitsofmeasure.org" />
      <code value="cm"/>
    </valueQuantity>
    
    <effectiveDateTime value="1999-05-28"/>
    <status value="final"/>
    <subject>
      <reference value="Patient/1291938"/>
    </subject>
    <encounter>
      <reference value="Encounter/775"/>
    </encounter>
    
  </Observation>
  
  </resource>
  <request>
    <method value="POST"/>
    <url value="Observation/775-height"/>
  </request>
</entry>
<entry>
  <resource>
    
    
  <Observation>
  <id value="775-heartrate"/>
    <text>
      <status value="generated"/>
      <div xmlns="http://www.w3.org/1999/xhtml">1999-05-28: heart_rate = 76.0 {beats}/min</div>
    </text>
    <code>
      <coding>
        <system value="http://loinc.org"/>
        <code value="8867-4"/>
        <display value="heart_rate"/>
      </coding>
      <text value="heart_rate"/>
    </code>
    <valueQuantity>
      <value value="76.0"/>
      <unit value="{beats}/min"/>
      <system value="http://unitsofmeasure.org" />
      <code value="{beats}/min"/>
    </valueQuantity>
    
    <effectiveDateTime value="1999-05-28"/>
    <status value="final"/>
    <subject>
      <reference value="Patient/1291938"/>
    </subject>
    <encounter>
      <reference value="Encounter/775"/>
    </encounter>
    
  </Observation>
  
  </resource>
  <request>
    <method value="POST"/>
    <url value="Observation/775-heartrate"/>
  </request>
</entry>
<entry>
  <resource>
    
    
  <Observation>
  <id value="775-respiratoryrate"/>
    <text>
      <status value="generated"/>
      <div xmlns="http://www.w3.org/1999/xhtml">1999-05-28: respiratory_rate = 18.0 {breaths}/min</div>
    </text>
    <code>
      <coding>
        <system value="http://loinc.org"/>
        <code value="9279-1"/>
        <display value="respiratory_rate"/>
      </coding>
      <text value="respiratory_rate"/>
    </code>
    <valueQuantity>
      <value value="18.0"/>
      <unit value="{breaths}/min"/>
      <system value="http://unitsofmeasure.org" />
      <code value="{breaths}/min"/>
    </valueQuantity>
    
    <effectiveDateTime value="1999-05-28"/>
    <status value="final"/>
    <subject>
      <reference value="Patient/1291938"/>
    </subject>
    <encounter>
      <reference value="Encounter/775"/>
    </encounter>
    
  </Observation>
  
  </resource>
  <request>
    <method value="POST"/>
    <url value="Observation/775-respiratoryrate"/>
  </request>
</entry>
<entry>
  <resource>
    
    
  <Observation>
  <id value="775-temperature"/>
    <text>
      <status value="generated"/>
      <div xmlns="http://www.w3.org/1999/xhtml">1999-05-28: temperature = 36.11111 Cel</div>
    </text>
    <code>
      <coding>
        <system value="http://loinc.org"/>
        <code value="8310-5"/>
        <display value="temperature"/>
      </coding>
      <text value="temperature"/>
    </code>
    <valueQuantity>
      <value value="36.11111"/>
      <unit value="Cel"/>
      <system value="http://unitsofmeasure.org" />
      <code value="Cel"/>
    </valueQuantity>
    
    <effectiveDateTime value="1999-05-28"/>
    <status value="final"/>
    <subject>
      <reference value="Patient/1291938"/>
    </subject>
    <encounter>
      <reference value="Encounter/775"/>
    </encounter>
    
  </Observation>
  
  </resource>
  <request>
    <method value="POST"/>
    <url value="Observation/775-temperature"/>
  </request>
</entry>
<entry>
  <resource>
    
    
  <Observation>
  <id value="775-weight"/>
    <text>
      <status value="generated"/>
      <div xmlns="http://www.w3.org/1999/xhtml">1999-05-28: weight = 100.65215 kg</div>
    </text>
    <code>
      <coding>
        <system value="http://loinc.org"/>
        <code value="3141-9"/>
        <display value="weight"/>
      </coding>
      <text value="weight"/>
    </code>
    <valueQuantity>
      <value value="100.65215"/>
      <unit value="kg"/>
      <system value="http://unitsofmeasure.org" />
      <code value="kg"/>
    </valueQuantity>
    
    <effectiveDateTime value="1999-05-28"/>
    <status value="final"/>
    <subject>
      <reference value="Patient/1291938"/>
    </subject>
    <encounter>
      <reference value="Encounter/775"/>
    </encounter>
    
  </Observation>
  
  </resource>
  <request>
    <method value="POST"/>
    <url value="Observation/775-weight"/>
  </request>
</entry>
<entry>
  <resource>
    
    
  <Observation>
  <id value="775-bmi"/>
    <text>
      <status value="generated"/>
      <div xmlns="http://www.w3.org/1999/xhtml">1999-05-28: bmi = 33.0 kg/m2</div>
    </text>
    <code>
      <coding>
        <system value="http://loinc.org"/>
        <code value="39156-5"/>
        <display value="bmi"/>
      </coding>
      <text value="bmi"/>
    </code>
    <valueQuantity>
      <value value="33.0"/>
      <unit value="kg/m2"/>
      <system value="http://unitsofmeasure.org" />
      <code value="kg/m2"/>
    </valueQuantity>
    
    <effectiveDateTime value="1999-05-28"/>
    <status value="final"/>
    <subject>
      <reference value="Patient/1291938"/>
    </subject>
    <encounter>
      <reference value="Encounter/775"/>
    </encounter>
    
  </Observation>
  
  </resource>
  <request>
    <method value="POST"/>
    <url value="Observation/775-bmi"/>
  </request>
</entry>
<entry>
  <resource>
    
    
  <Observation>
  <id value="775-oxygensaturation"/>
    <text>
      <status value="generated"/>
      <div xmlns="http://www.w3.org/1999/xhtml">1999-05-28: oxygen_saturation = 97.0 %{HemoglobinSaturation}</div>
    </text>
    <code>
      <coding>
        <system value="http://loinc.org"/>
        <code value="2710-2"/>
        <display value="oxygen_saturation"/>
      </coding>
      <text value="oxygen_saturation"/>
    </code>
    <valueQuantity>
      <value value="97.0"/>
      <unit value="%{HemoglobinSaturation}"/>
      <system value="http://unitsofmeasure.org" />
      <code value="%{HemoglobinSaturation}"/>
    </valueQuantity>
    
    <effectiveDateTime value="1999-05-28"/>
    <status value="final"/>
    <subject>
      <reference value="Patient/1291938"/>
    </subject>
    <encounter>
      <reference value="Encounter/775"/>
    </encounter>
    
  </Observation>
  
  </resource>
  <request>
    <method value="POST"/>
    <url value="Observation/775-oxygensaturation"/>
  </request>
</entry>
<entry>
  <resource>
    
    
  <Observation>
  <id value="776-height"/>
    <text>
      <status value="generated"/>
      <div xmlns="http://www.w3.org/1999/xhtml">1999-06-01: height = 173.736 cm</div>
    </text>
    <code>
      <coding>
        <system value="http://loinc.org"/>
        <code value="8302-2"/>
        <display value="height"/>
      </coding>
      <text value="height"/>
    </code>
    <valueQuantity>
      <value value="173.736"/>
      <unit value="cm"/>
      <system value="http://unitsofmeasure.org" />
      <code value="cm"/>
    </valueQuantity>
    
    <effectiveDateTime value="1999-06-01"/>
    <status value="final"/>
    <subject>
      <reference value="Patient/1291938"/>
    </subject>
    <encounter>
      <reference value="Encounter/776"/>
    </encounter>
    
  </Observation>
  
  </resource>
  <request>
    <method value="POST"/>
    <url value="Observation/776-height"/>
  </request>
</entry>
<entry>
  <resource>
    
    
  <Observation>
  <id value="776-heartrate"/>
    <text>
      <status value="generated"/>
      <div xmlns="http://www.w3.org/1999/xhtml">1999-06-01: heart_rate = 76.0 {beats}/min</div>
    </text>
    <code>
      <coding>
        <system value="http://loinc.org"/>
        <code value="8867-4"/>
        <display value="heart_rate"/>
      </coding>
      <text value="heart_rate"/>
    </code>
    <valueQuantity>
      <value value="76.0"/>
      <unit value="{beats}/min"/>
      <system value="http://unitsofmeasure.org" />
      <code value="{beats}/min"/>
    </valueQuantity>
    
    <effectiveDateTime value="1999-06-01"/>
    <status value="final"/>
    <subject>
      <reference value="Patient/1291938"/>
    </subject>
    <encounter>
      <reference value="Encounter/776"/>
    </encounter>
    
  </Observation>
  
  </resource>
  <request>
    <method value="POST"/>
    <url value="Observation/776-heartrate"/>
  </request>
</entry>
<entry>
  <resource>
    
    
  <Observation>
  <id value="776-respiratoryrate"/>
    <text>
      <status value="generated"/>
      <div xmlns="http://www.w3.org/1999/xhtml">1999-06-01: respiratory_rate = 18.0 {breaths}/min</div>
    </text>
    <code>
      <coding>
        <system value="http://loinc.org"/>
        <code value="9279-1"/>
        <display value="respiratory_rate"/>
      </coding>
      <text value="respiratory_rate"/>
    </code>
    <valueQuantity>
      <value value="18.0"/>
      <unit value="{breaths}/min"/>
      <system value="http://unitsofmeasure.org" />
      <code value="{breaths}/min"/>
    </valueQuantity>
    
    <effectiveDateTime value="1999-06-01"/>
    <status value="final"/>
    <subject>
      <reference value="Patient/1291938"/>
    </subject>
    <encounter>
      <reference value="Encounter/776"/>
    </encounter>
    
  </Observation>
  
  </resource>
  <request>
    <method value="POST"/>
    <url value="Observation/776-respiratoryrate"/>
  </request>
</entry>
<entry>
  <resource>
    
    
  <Observation>
  <id value="776-temperature"/>
    <text>
      <status value="generated"/>
      <div xmlns="http://www.w3.org/1999/xhtml">1999-06-01: temperature = 36.11111 Cel</div>
    </text>
    <code>
      <coding>
        <system value="http://loinc.org"/>
        <code value="8310-5"/>
        <display value="temperature"/>
      </coding>
      <text value="temperature"/>
    </code>
    <valueQuantity>
      <value value="36.11111"/>
      <unit value="Cel"/>
      <system value="http://unitsofmeasure.org" />
      <code value="Cel"/>
    </valueQuantity>
    
    <effectiveDateTime value="1999-06-01"/>
    <status value="final"/>
    <subject>
      <reference value="Patient/1291938"/>
    </subject>
    <encounter>
      <reference value="Encounter/776"/>
    </encounter>
    
  </Observation>
  
  </resource>
  <request>
    <method value="POST"/>
    <url value="Observation/776-temperature"/>
  </request>
</entry>
<entry>
  <resource>
    
    
  <Observation>
  <id value="776-weight"/>
    <text>
      <status value="generated"/>
      <div xmlns="http://www.w3.org/1999/xhtml">1999-06-01: weight = 102.55723 kg</div>
    </text>
    <code>
      <coding>
        <system value="http://loinc.org"/>
        <code value="3141-9"/>
        <display value="weight"/>
      </coding>
      <text value="weight"/>
    </code>
    <valueQuantity>
      <value value="102.55723"/>
      <unit value="kg"/>
      <system value="http://unitsofmeasure.org" />
      <code value="kg"/>
    </valueQuantity>
    
    <effectiveDateTime value="1999-06-01"/>
    <status value="final"/>
    <subject>
      <reference value="Patient/1291938"/>
    </subject>
    <encounter>
      <reference value="Encounter/776"/>
    </encounter>
    
  </Observation>
  
  </resource>
  <request>
    <method value="POST"/>
    <url value="Observation/776-weight"/>
  </request>
</entry>
<entry>
  <resource>
    
    
  <Observation>
  <id value="776-bmi"/>
    <text>
      <status value="generated"/>
      <div xmlns="http://www.w3.org/1999/xhtml">1999-06-01: bmi = 34.0 kg/m2</div>
    </text>
    <code>
      <coding>
        <system value="http://loinc.org"/>
        <code value="39156-5"/>
        <display value="bmi"/>
      </coding>
      <text value="bmi"/>
    </code>
    <valueQuantity>
      <value value="34.0"/>
      <unit value="kg/m2"/>
      <system value="http://unitsofmeasure.org" />
      <code value="kg/m2"/>
    </valueQuantity>
    
    <effectiveDateTime value="1999-06-01"/>
    <status value="final"/>
    <subject>
      <reference value="Patient/1291938"/>
    </subject>
    <encounter>
      <reference value="Encounter/776"/>
    </encounter>
    
  </Observation>
  
  </resource>
  <request>
    <method value="POST"/>
    <url value="Observation/776-bmi"/>
  </request>
</entry>
<entry>
  <resource>
    
    
  <Observation>
  <id value="776-oxygensaturation"/>
    <text>
      <status value="generated"/>
      <div xmlns="http://www.w3.org/1999/xhtml">1999-06-01: oxygen_saturation = 97.0 %{HemoglobinSaturation}</div>
    </text>
    <code>
      <coding>
        <system value="http://loinc.org"/>
        <code value="2710-2"/>
        <display value="oxygen_saturation"/>
      </coding>
      <text value="oxygen_saturation"/>
    </code>
    <valueQuantity>
      <value value="97.0"/>
      <unit value="%{HemoglobinSaturation}"/>
      <system value="http://unitsofmeasure.org" />
      <code value="%{HemoglobinSaturation}"/>
    </valueQuantity>
    
    <effectiveDateTime value="1999-06-01"/>
    <status value="final"/>
    <subject>
      <reference value="Patient/1291938"/>
    </subject>
    <encounter>
      <reference value="Encounter/776"/>
    </encounter>
    
  </Observation>
  
  </resource>
  <request>
    <method value="POST"/>
    <url value="Observation/776-oxygensaturation"/>
  </request>
</entry>
<entry>
  <resource>
    
    
  <Observation>
  <id value="777-height"/>
    <text>
      <status value="generated"/>
      <div xmlns="http://www.w3.org/1999/xhtml">1999-06-03: height = 174.498 cm</div>
    </text>
    <code>
      <coding>
        <system value="http://loinc.org"/>
        <code value="8302-2"/>
        <display value="height"/>
      </coding>
      <text value="height"/>
    </code>
    <valueQuantity>
      <value value="174.498"/>
      <unit value="cm"/>
      <system value="http://unitsofmeasure.org" />
      <code value="cm"/>
    </valueQuantity>
    
    <effectiveDateTime value="1999-06-03"/>
    <status value="final"/>
    <subject>
      <reference value="Patient/1291938"/>
    </subject>
    <encounter>
      <reference value="Encounter/777"/>
    </encounter>
    
  </Observation>
  
  </resource>
  <request>
    <method value="POST"/>
    <url value="Observation/777-height"/>
  </request>
</entry>
<entry>
  <resource>
    
    
  <Observation>
  <id value="777-heartrate"/>
    <text>
      <status value="generated"/>
      <div xmlns="http://www.w3.org/1999/xhtml">1999-06-03: heart_rate = 77.0 {beats}/min</div>
    </text>
    <code>
      <coding>
        <system value="http://loinc.org"/>
        <code value="8867-4"/>
        <display value="heart_rate"/>
      </coding>
      <text value="heart_rate"/>
    </code>
    <valueQuantity>
      <value value="77.0"/>
      <unit value="{beats}/min"/>
      <system value="http://unitsofmeasure.org" />
      <code value="{beats}/min"/>
    </valueQuantity>
    
    <effectiveDateTime value="1999-06-03"/>
    <status value="final"/>
    <subject>
      <reference value="Patient/1291938"/>
    </subject>
    <encounter>
      <reference value="Encounter/777"/>
    </encounter>
    
  </Observation>
  
  </resource>
  <request>
    <method value="POST"/>
    <url value="Observation/777-heartrate"/>
  </request>
</entry>
<entry>
  <resource>
    
    
  <Observation>
  <id value="777-respiratoryrate"/>
    <text>
      <status value="generated"/>
      <div xmlns="http://www.w3.org/1999/xhtml">1999-06-03: respiratory_rate = 18.0 {breaths}/min</div>
    </text>
    <code>
      <coding>
        <system value="http://loinc.org"/>
        <code value="9279-1"/>
        <display value="respiratory_rate"/>
      </coding>
      <text value="respiratory_rate"/>
    </code>
    <valueQuantity>
      <value value="18.0"/>
      <unit value="{breaths}/min"/>
      <system value="http://unitsofmeasure.org" />
      <code value="{breaths}/min"/>
    </valueQuantity>
    
    <effectiveDateTime value="1999-06-03"/>
    <status value="final"/>
    <subject>
      <reference value="Patient/1291938"/>
    </subject>
    <encounter>
      <reference value="Encounter/777"/>
    </encounter>
    
  </Observation>
  
  </resource>
  <request>
    <method value="POST"/>
    <url value="Observation/777-respiratoryrate"/>
  </request>
</entry>
<entry>
  <resource>
    
    
  <Observation>
  <id value="777-temperature"/>
    <text>
      <status value="generated"/>
      <div xmlns="http://www.w3.org/1999/xhtml">1999-06-03: temperature = 36.11111 Cel</div>
    </text>
    <code>
      <coding>
        <system value="http://loinc.org"/>
        <code value="8310-5"/>
        <display value="temperature"/>
      </coding>
      <text value="temperature"/>
    </code>
    <valueQuantity>
      <value value="36.11111"/>
      <unit value="Cel"/>
      <system value="http://unitsofmeasure.org" />
      <code value="Cel"/>
    </valueQuantity>
    
    <effectiveDateTime value="1999-06-03"/>
    <status value="final"/>
    <subject>
      <reference value="Patient/1291938"/>
    </subject>
    <encounter>
      <reference value="Encounter/777"/>
    </encounter>
    
  </Observation>
  
  </resource>
  <request>
    <method value="POST"/>
    <url value="Observation/777-temperature"/>
  </request>
</entry>
<entry>
  <resource>
    
    
  <Observation>
  <id value="777-weight"/>
    <text>
      <status value="generated"/>
      <div xmlns="http://www.w3.org/1999/xhtml">1999-06-03: weight = 98.88314 kg</div>
    </text>
    <code>
      <coding>
        <system value="http://loinc.org"/>
        <code value="3141-9"/>
        <display value="weight"/>
      </coding>
      <text value="weight"/>
    </code>
    <valueQuantity>
      <value value="98.88314"/>
      <unit value="kg"/>
      <system value="http://unitsofmeasure.org" />
      <code value="kg"/>
    </valueQuantity>
    
    <effectiveDateTime value="1999-06-03"/>
    <status value="final"/>
    <subject>
      <reference value="Patient/1291938"/>
    </subject>
    <encounter>
      <reference value="Encounter/777"/>
    </encounter>
    
  </Observation>
  
  </resource>
  <request>
    <method value="POST"/>
    <url value="Observation/777-weight"/>
  </request>
</entry>
<entry>
  <resource>
    
    
  <Observation>
  <id value="777-bmi"/>
    <text>
      <status value="generated"/>
      <div xmlns="http://www.w3.org/1999/xhtml">1999-06-03: bmi = 32.5 kg/m2</div>
    </text>
    <code>
      <coding>
        <system value="http://loinc.org"/>
        <code value="39156-5"/>
        <display value="bmi"/>
      </coding>
      <text value="bmi"/>
    </code>
    <valueQuantity>
      <value value="32.5"/>
      <unit value="kg/m2"/>
      <system value="http://unitsofmeasure.org" />
      <code value="kg/m2"/>
    </valueQuantity>
    
    <effectiveDateTime value="1999-06-03"/>
    <status value="final"/>
    <subject>
      <reference value="Patient/1291938"/>
    </subject>
    <encounter>
      <reference value="Encounter/777"/>
    </encounter>
    
  </Observation>
  
  </resource>
  <request>
    <method value="POST"/>
    <url value="Observation/777-bmi"/>
  </request>
</entry>
<entry>
  <resource>
    
    
  <Observation>
  <id value="777-oxygensaturation"/>
    <text>
      <status value="generated"/>
      <div xmlns="http://www.w3.org/1999/xhtml">1999-06-03: oxygen_saturation = 97.0 %{HemoglobinSaturation}</div>
    </text>
    <code>
      <coding>
        <system value="http://loinc.org"/>
        <code value="2710-2"/>
        <display value="oxygen_saturation"/>
      </coding>
      <text value="oxygen_saturation"/>
    </code>
    <valueQuantity>
      <value value="97.0"/>
      <unit value="%{HemoglobinSaturation}"/>
      <system value="http://unitsofmeasure.org" />
      <code value="%{HemoglobinSaturation}"/>
    </valueQuantity>
    
    <effectiveDateTime value="1999-06-03"/>
    <status value="final"/>
    <subject>
      <reference value="Patient/1291938"/>
    </subject>
    <encounter>
      <reference value="Encounter/777"/>
    </encounter>
    
  </Observation>
  
  </resource>
  <request>
    <method value="POST"/>
    <url value="Observation/777-oxygensaturation"/>
  </request>
</entry>
<entry>
  <resource>
    
    
  <Observation>
  <id value="778-height"/>
    <text>
      <status value="generated"/>
      <div xmlns="http://www.w3.org/1999/xhtml">1999-06-07: height = 173.99 cm</div>
    </text>
    <code>
      <coding>
        <system value="http://loinc.org"/>
        <code value="8302-2"/>
        <display value="height"/>
      </coding>
      <text value="height"/>
    </code>
    <valueQuantity>
      <value value="173.99"/>
      <unit value="cm"/>
      <system value="http://unitsofmeasure.org" />
      <code value="cm"/>
    </valueQuantity>
    
    <effectiveDateTime value="1999-06-07"/>
    <status value="final"/>
    <subject>
      <reference value="Patient/1291938"/>
    </subject>
    <encounter>
      <reference value="Encounter/778"/>
    </encounter>
    
  </Observation>
  
  </resource>
  <request>
    <method value="POST"/>
    <url value="Observation/778-height"/>
  </request>
</entry>
<entry>
  <resource>
    
    
  <Observation>
  <id value="778-heartrate"/>
    <text>
      <status value="generated"/>
      <div xmlns="http://www.w3.org/1999/xhtml">1999-06-07: heart_rate = 77.0 {beats}/min</div>
    </text>
    <code>
      <coding>
        <system value="http://loinc.org"/>
        <code value="8867-4"/>
        <display value="heart_rate"/>
      </coding>
      <text value="heart_rate"/>
    </code>
    <valueQuantity>
      <value value="77.0"/>
      <unit value="{beats}/min"/>
      <system value="http://unitsofmeasure.org" />
      <code value="{beats}/min"/>
    </valueQuantity>
    
    <effectiveDateTime value="1999-06-07"/>
    <status value="final"/>
    <subject>
      <reference value="Patient/1291938"/>
    </subject>
    <encounter>
      <reference value="Encounter/778"/>
    </encounter>
    
  </Observation>
  
  </resource>
  <request>
    <method value="POST"/>
    <url value="Observation/778-heartrate"/>
  </request>
</entry>
<entry>
  <resource>
    
    
  <Observation>
  <id value="778-respiratoryrate"/>
    <text>
      <status value="generated"/>
      <div xmlns="http://www.w3.org/1999/xhtml">1999-06-07: respiratory_rate = 18.0 {breaths}/min</div>
    </text>
    <code>
      <coding>
        <system value="http://loinc.org"/>
        <code value="9279-1"/>
        <display value="respiratory_rate"/>
      </coding>
      <text value="respiratory_rate"/>
    </code>
    <valueQuantity>
      <value value="18.0"/>
      <unit value="{breaths}/min"/>
      <system value="http://unitsofmeasure.org" />
      <code value="{breaths}/min"/>
    </valueQuantity>
    
    <effectiveDateTime value="1999-06-07"/>
    <status value="final"/>
    <subject>
      <reference value="Patient/1291938"/>
    </subject>
    <encounter>
      <reference value="Encounter/778"/>
    </encounter>
    
  </Observation>
  
  </resource>
  <request>
    <method value="POST"/>
    <url value="Observation/778-respiratoryrate"/>
  </request>
</entry>
<entry>
  <resource>
    
    
  <Observation>
  <id value="778-temperature"/>
    <text>
      <status value="generated"/>
      <div xmlns="http://www.w3.org/1999/xhtml">1999-06-07: temperature = 36.11111 Cel</div>
    </text>
    <code>
      <coding>
        <system value="http://loinc.org"/>
        <code value="8310-5"/>
        <display value="temperature"/>
      </coding>
      <text value="temperature"/>
    </code>
    <valueQuantity>
      <value value="36.11111"/>
      <unit value="Cel"/>
      <system value="http://unitsofmeasure.org" />
      <code value="Cel"/>
    </valueQuantity>
    
    <effectiveDateTime value="1999-06-07"/>
    <status value="final"/>
    <subject>
      <reference value="Patient/1291938"/>
    </subject>
    <encounter>
      <reference value="Encounter/778"/>
    </encounter>
    
  </Observation>
  
  </resource>
  <request>
    <method value="POST"/>
    <url value="Observation/778-temperature"/>
  </request>
</entry>
<entry>
  <resource>
    
    
  <Observation>
  <id value="778-weight"/>
    <text>
      <status value="generated"/>
      <div xmlns="http://www.w3.org/1999/xhtml">1999-06-07: weight = 100.74287 kg</div>
    </text>
    <code>
      <coding>
        <system value="http://loinc.org"/>
        <code value="3141-9"/>
        <display value="weight"/>
      </coding>
      <text value="weight"/>
    </code>
    <valueQuantity>
      <value value="100.74287"/>
      <unit value="kg"/>
      <system value="http://unitsofmeasure.org" />
      <code value="kg"/>
    </valueQuantity>
    
    <effectiveDateTime value="1999-06-07"/>
    <status value="final"/>
    <subject>
      <reference value="Patient/1291938"/>
    </subject>
    <encounter>
      <reference value="Encounter/778"/>
    </encounter>
    
  </Observation>
  
  </resource>
  <request>
    <method value="POST"/>
    <url value="Observation/778-weight"/>
  </request>
</entry>
<entry>
  <resource>
    
    
  <Observation>
  <id value="778-bmi"/>
    <text>
      <status value="generated"/>
      <div xmlns="http://www.w3.org/1999/xhtml">1999-06-07: bmi = 33.3 kg/m2</div>
    </text>
    <code>
      <coding>
        <system value="http://loinc.org"/>
        <code value="39156-5"/>
        <display value="bmi"/>
      </coding>
      <text value="bmi"/>
    </code>
    <valueQuantity>
      <value value="33.3"/>
      <unit value="kg/m2"/>
      <system value="http://unitsofmeasure.org" />
      <code value="kg/m2"/>
    </valueQuantity>
    
    <effectiveDateTime value="1999-06-07"/>
    <status value="final"/>
    <subject>
      <reference value="Patient/1291938"/>
    </subject>
    <encounter>
      <reference value="Encounter/778"/>
    </encounter>
    
  </Observation>
  
  </resource>
  <request>
    <method value="POST"/>
    <url value="Observation/778-bmi"/>
  </request>
</entry>
<entry>
  <resource>
    
    
  <Observation>
  <id value="778-oxygensaturation"/>
    <text>
      <status value="generated"/>
      <div xmlns="http://www.w3.org/1999/xhtml">1999-06-07: oxygen_saturation = 97.0 %{HemoglobinSaturation}</div>
    </text>
    <code>
      <coding>
        <system value="http://loinc.org"/>
        <code value="2710-2"/>
        <display value="oxygen_saturation"/>
      </coding>
      <text value="oxygen_saturation"/>
    </code>
    <valueQuantity>
      <value value="97.0"/>
      <unit value="%{HemoglobinSaturation}"/>
      <system value="http://unitsofmeasure.org" />
      <code value="%{HemoglobinSaturation}"/>
    </valueQuantity>
    
    <effectiveDateTime value="1999-06-07"/>
    <status value="final"/>
    <subject>
      <reference value="Patient/1291938"/>
    </subject>
    <encounter>
      <reference value="Encounter/778"/>
    </encounter>
    
  </Observation>
  
  </resource>
  <request>
    <method value="POST"/>
    <url value="Observation/778-oxygensaturation"/>
  </request>
</entry>
<entry>
  <resource>
    
    
  <Observation>
  <id value="779-height"/>
    <text>
      <status value="generated"/>
      <div xmlns="http://www.w3.org/1999/xhtml">1999-06-09: height = 173.736 cm</div>
    </text>
    <code>
      <coding>
        <system value="http://loinc.org"/>
        <code value="8302-2"/>
        <display value="height"/>
      </coding>
      <text value="height"/>
    </code>
    <valueQuantity>
      <value value="173.736"/>
      <unit value="cm"/>
      <system value="http://unitsofmeasure.org" />
      <code value="cm"/>
    </valueQuantity>
    
    <effectiveDateTime value="1999-06-09"/>
    <status value="final"/>
    <subject>
      <reference value="Patient/1291938"/>
    </subject>
    <encounter>
      <reference value="Encounter/779"/>
    </encounter>
    
  </Observation>
  
  </resource>
  <request>
    <method value="POST"/>
    <url value="Observation/779-height"/>
  </request>
</entry>
<entry>
  <resource>
    
    
  <Observation>
  <id value="779-heartrate"/>
    <text>
      <status value="generated"/>
      <div xmlns="http://www.w3.org/1999/xhtml">1999-06-09: heart_rate = 74.0 {beats}/min</div>
    </text>
    <code>
      <coding>
        <system value="http://loinc.org"/>
        <code value="8867-4"/>
        <display value="heart_rate"/>
      </coding>
      <text value="heart_rate"/>
    </code>
    <valueQuantity>
      <value value="74.0"/>
      <unit value="{beats}/min"/>
      <system value="http://unitsofmeasure.org" />
      <code value="{beats}/min"/>
    </valueQuantity>
    
    <effectiveDateTime value="1999-06-09"/>
    <status value="final"/>
    <subject>
      <reference value="Patient/1291938"/>
    </subject>
    <encounter>
      <reference value="Encounter/779"/>
    </encounter>
    
  </Observation>
  
  </resource>
  <request>
    <method value="POST"/>
    <url value="Observation/779-heartrate"/>
  </request>
</entry>
<entry>
  <resource>
    
    
  <Observation>
  <id value="779-respiratoryrate"/>
    <text>
      <status value="generated"/>
      <div xmlns="http://www.w3.org/1999/xhtml">1999-06-09: respiratory_rate = 18.0 {breaths}/min</div>
    </text>
    <code>
      <coding>
        <system value="http://loinc.org"/>
        <code value="9279-1"/>
        <display value="respiratory_rate"/>
      </coding>
      <text value="respiratory_rate"/>
    </code>
    <valueQuantity>
      <value value="18.0"/>
      <unit value="{breaths}/min"/>
      <system value="http://unitsofmeasure.org" />
      <code value="{breaths}/min"/>
    </valueQuantity>
    
    <effectiveDateTime value="1999-06-09"/>
    <status value="final"/>
    <subject>
      <reference value="Patient/1291938"/>
    </subject>
    <encounter>
      <reference value="Encounter/779"/>
    </encounter>
    
  </Observation>
  
  </resource>
  <request>
    <method value="POST"/>
    <url value="Observation/779-respiratoryrate"/>
  </request>
</entry>
<entry>
  <resource>
    
    
  <Observation>
  <id value="779-temperature"/>
    <text>
      <status value="generated"/>
      <div xmlns="http://www.w3.org/1999/xhtml">1999-06-09: temperature = 36.11111 Cel</div>
    </text>
    <code>
      <coding>
        <system value="http://loinc.org"/>
        <code value="8310-5"/>
        <display value="temperature"/>
      </coding>
      <text value="temperature"/>
    </code>
    <valueQuantity>
      <value value="36.11111"/>
      <unit value="Cel"/>
      <system value="http://unitsofmeasure.org" />
      <code value="Cel"/>
    </valueQuantity>
    
    <effectiveDateTime value="1999-06-09"/>
    <status value="final"/>
    <subject>
      <reference value="Patient/1291938"/>
    </subject>
    <encounter>
      <reference value="Encounter/779"/>
    </encounter>
    
  </Observation>
  
  </resource>
  <request>
    <method value="POST"/>
    <url value="Observation/779-temperature"/>
  </request>
</entry>
<entry>
  <resource>
    
    
  <Observation>
  <id value="779-weight"/>
    <text>
      <status value="generated"/>
      <div xmlns="http://www.w3.org/1999/xhtml">1999-06-09: weight = 97.477 kg</div>
    </text>
    <code>
      <coding>
        <system value="http://loinc.org"/>
        <code value="3141-9"/>
        <display value="weight"/>
      </coding>
      <text value="weight"/>
    </code>
    <valueQuantity>
      <value value="97.477"/>
      <unit value="kg"/>
      <system value="http://unitsofmeasure.org" />
      <code value="kg"/>
    </valueQuantity>
    
    <effectiveDateTime value="1999-06-09"/>
    <status value="final"/>
    <subject>
      <reference value="Patient/1291938"/>
    </subject>
    <encounter>
      <reference value="Encounter/779"/>
    </encounter>
    
  </Observation>
  
  </resource>
  <request>
    <method value="POST"/>
    <url value="Observation/779-weight"/>
  </request>
</entry>
<entry>
  <resource>
    
    
  <Observation>
  <id value="779-bmi"/>
    <text>
      <status value="generated"/>
      <div xmlns="http://www.w3.org/1999/xhtml">1999-06-09: bmi = 32.3 kg/m2</div>
    </text>
    <code>
      <coding>
        <system value="http://loinc.org"/>
        <code value="39156-5"/>
        <display value="bmi"/>
      </coding>
      <text value="bmi"/>
    </code>
    <valueQuantity>
      <value value="32.3"/>
      <unit value="kg/m2"/>
      <system value="http://unitsofmeasure.org" />
      <code value="kg/m2"/>
    </valueQuantity>
    
    <effectiveDateTime value="1999-06-09"/>
    <status value="final"/>
    <subject>
      <reference value="Patient/1291938"/>
    </subject>
    <encounter>
      <reference value="Encounter/779"/>
    </encounter>
    
  </Observation>
  
  </resource>
  <request>
    <method value="POST"/>
    <url value="Observation/779-bmi"/>
  </request>
</entry>
<entry>
  <resource>
    
    
  <Observation>
  <id value="779-oxygensaturation"/>
    <text>
      <status value="generated"/>
      <div xmlns="http://www.w3.org/1999/xhtml">1999-06-09: oxygen_saturation = 97.0 %{HemoglobinSaturation}</div>
    </text>
    <code>
      <coding>
        <system value="http://loinc.org"/>
        <code value="2710-2"/>
        <display value="oxygen_saturation"/>
      </coding>
      <text value="oxygen_saturation"/>
    </code>
    <valueQuantity>
      <value value="97.0"/>
      <unit value="%{HemoglobinSaturation}"/>
      <system value="http://unitsofmeasure.org" />
      <code value="%{HemoglobinSaturation}"/>
    </valueQuantity>
    
    <effectiveDateTime value="1999-06-09"/>
    <status value="final"/>
    <subject>
      <reference value="Patient/1291938"/>
    </subject>
    <encounter>
      <reference value="Encounter/779"/>
    </encounter>
    
  </Observation>
  
  </resource>
  <request>
    <method value="POST"/>
    <url value="Observation/779-oxygensaturation"/>
  </request>
</entry>
<entry>
  <resource>
    
    
  <Observation>
  <id value="780-height"/>
    <text>
      <status value="generated"/>
      <div xmlns="http://www.w3.org/1999/xhtml">2003-04-09: height = 173.228 cm</div>
    </text>
    <code>
      <coding>
        <system value="http://loinc.org"/>
        <code value="8302-2"/>
        <display value="height"/>
      </coding>
      <text value="height"/>
    </code>
    <valueQuantity>
      <value value="173.228"/>
      <unit value="cm"/>
      <system value="http://unitsofmeasure.org" />
      <code value="cm"/>
    </valueQuantity>
    
    <effectiveDateTime value="2003-04-09"/>
    <status value="final"/>
    <subject>
      <reference value="Patient/1291938"/>
    </subject>
    <encounter>
      <reference value="Encounter/780"/>
    </encounter>
    
  </Observation>
  
  </resource>
  <request>
    <method value="POST"/>
    <url value="Observation/780-height"/>
  </request>
</entry>
<entry>
  <resource>
    
    
  <Observation>
  <id value="780-heartrate"/>
    <text>
      <status value="generated"/>
      <div xmlns="http://www.w3.org/1999/xhtml">2003-04-09: heart_rate = 74.0 {beats}/min</div>
    </text>
    <code>
      <coding>
        <system value="http://loinc.org"/>
        <code value="8867-4"/>
        <display value="heart_rate"/>
      </coding>
      <text value="heart_rate"/>
    </code>
    <valueQuantity>
      <value value="74.0"/>
      <unit value="{beats}/min"/>
      <system value="http://unitsofmeasure.org" />
      <code value="{beats}/min"/>
    </valueQuantity>
    
    <effectiveDateTime value="2003-04-09"/>
    <status value="final"/>
    <subject>
      <reference value="Patient/1291938"/>
    </subject>
    <encounter>
      <reference value="Encounter/780"/>
    </encounter>
    
  </Observation>
  
  </resource>
  <request>
    <method value="POST"/>
    <url value="Observation/780-heartrate"/>
  </request>
</entry>
<entry>
  <resource>
    
    
  <Observation>
  <id value="780-respiratoryrate"/>
    <text>
      <status value="generated"/>
      <div xmlns="http://www.w3.org/1999/xhtml">2003-04-09: respiratory_rate = 20.0 {breaths}/min</div>
    </text>
    <code>
      <coding>
        <system value="http://loinc.org"/>
        <code value="9279-1"/>
        <display value="respiratory_rate"/>
      </coding>
      <text value="respiratory_rate"/>
    </code>
    <valueQuantity>
      <value value="20.0"/>
      <unit value="{breaths}/min"/>
      <system value="http://unitsofmeasure.org" />
      <code value="{breaths}/min"/>
    </valueQuantity>
    
    <effectiveDateTime value="2003-04-09"/>
    <status value="final"/>
    <subject>
      <reference value="Patient/1291938"/>
    </subject>
    <encounter>
      <reference value="Encounter/780"/>
    </encounter>
    
  </Observation>
  
  </resource>
  <request>
    <method value="POST"/>
    <url value="Observation/780-respiratoryrate"/>
  </request>
</entry>
<entry>
  <resource>
    
    
  <Observation>
  <id value="780-temperature"/>
    <text>
      <status value="generated"/>
      <div xmlns="http://www.w3.org/1999/xhtml">2003-04-09: temperature = 36.05556 Cel</div>
    </text>
    <code>
      <coding>
        <system value="http://loinc.org"/>
        <code value="8310-5"/>
        <display value="temperature"/>
      </coding>
      <text value="temperature"/>
    </code>
    <valueQuantity>
      <value value="36.05556"/>
      <unit value="Cel"/>
      <system value="http://unitsofmeasure.org" />
      <code value="Cel"/>
    </valueQuantity>
    
    <effectiveDateTime value="2003-04-09"/>
    <status value="final"/>
    <subject>
      <reference value="Patient/1291938"/>
    </subject>
    <encounter>
      <reference value="Encounter/780"/>
    </encounter>
    
  </Observation>
  
  </resource>
  <request>
    <method value="POST"/>
    <url value="Observation/780-temperature"/>
  </request>
</entry>
<entry>
  <resource>
    
    
  <Observation>
  <id value="780-weight"/>
    <text>
      <status value="generated"/>
      <div xmlns="http://www.w3.org/1999/xhtml">2003-04-09: weight = 96.4791 kg</div>
    </text>
    <code>
      <coding>
        <system value="http://loinc.org"/>
        <code value="3141-9"/>
        <display value="weight"/>
      </coding>
      <text value="weight"/>
    </code>
    <valueQuantity>
      <value value="96.4791"/>
      <unit value="kg"/>
      <system value="http://unitsofmeasure.org" />
      <code value="kg"/>
    </valueQuantity>
    
    <effectiveDateTime value="2003-04-09"/>
    <status value="final"/>
    <subject>
      <reference value="Patient/1291938"/>
    </subject>
    <encounter>
      <reference value="Encounter/780"/>
    </encounter>
    
  </Observation>
  
  </resource>
  <request>
    <method value="POST"/>
    <url value="Observation/780-weight"/>
  </request>
</entry>
<entry>
  <resource>
    
    
  <Observation>
  <id value="780-bmi"/>
    <text>
      <status value="generated"/>
      <div xmlns="http://www.w3.org/1999/xhtml">2003-04-09: bmi = 32.1 kg/m2</div>
    </text>
    <code>
      <coding>
        <system value="http://loinc.org"/>
        <code value="39156-5"/>
        <display value="bmi"/>
      </coding>
      <text value="bmi"/>
    </code>
    <valueQuantity>
      <value value="32.1"/>
      <unit value="kg/m2"/>
      <system value="http://unitsofmeasure.org" />
      <code value="kg/m2"/>
    </valueQuantity>
    
    <effectiveDateTime value="2003-04-09"/>
    <status value="final"/>
    <subject>
      <reference value="Patient/1291938"/>
    </subject>
    <encounter>
      <reference value="Encounter/780"/>
    </encounter>
    
  </Observation>
  
  </resource>
  <request>
    <method value="POST"/>
    <url value="Observation/780-bmi"/>
  </request>
</entry>
<entry>
  <resource>
    
    
  <Observation>
  <id value="780-oxygensaturation"/>
    <text>
      <status value="generated"/>
      <div xmlns="http://www.w3.org/1999/xhtml">2003-04-09: oxygen_saturation = 97.0 %{HemoglobinSaturation}</div>
    </text>
    <code>
      <coding>
        <system value="http://loinc.org"/>
        <code value="2710-2"/>
        <display value="oxygen_saturation"/>
      </coding>
      <text value="oxygen_saturation"/>
    </code>
    <valueQuantity>
      <value value="97.0"/>
      <unit value="%{HemoglobinSaturation}"/>
      <system value="http://unitsofmeasure.org" />
      <code value="%{HemoglobinSaturation}"/>
    </valueQuantity>
    
    <effectiveDateTime value="2003-04-09"/>
    <status value="final"/>
    <subject>
      <reference value="Patient/1291938"/>
    </subject>
    <encounter>
      <reference value="Encounter/780"/>
    </encounter>
    
  </Observation>
  
  </resource>
  <request>
    <method value="POST"/>
    <url value="Observation/780-oxygensaturation"/>
  </request>
</entry>
<entry>
  <resource>
    
    
  <Observation>
  <id value="781-height"/>
    <text>
      <status value="generated"/>
      <div xmlns="http://www.w3.org/1999/xhtml">2003-04-11: height = 173.736 cm</div>
    </text>
    <code>
      <coding>
        <system value="http://loinc.org"/>
        <code value="8302-2"/>
        <display value="height"/>
      </coding>
      <text value="height"/>
    </code>
    <valueQuantity>
      <value value="173.736"/>
      <unit value="cm"/>
      <system value="http://unitsofmeasure.org" />
      <code value="cm"/>
    </valueQuantity>
    
    <effectiveDateTime value="2003-04-11"/>
    <status value="final"/>
    <subject>
      <reference value="Patient/1291938"/>
    </subject>
    <encounter>
      <reference value="Encounter/781"/>
    </encounter>
    
  </Observation>
  
  </resource>
  <request>
    <method value="POST"/>
    <url value="Observation/781-height"/>
  </request>
</entry>
<entry>
  <resource>
    
    
  <Observation>
  <id value="781-heartrate"/>
    <text>
      <status value="generated"/>
      <div xmlns="http://www.w3.org/1999/xhtml">2003-04-11: heart_rate = 74.0 {beats}/min</div>
    </text>
    <code>
      <coding>
        <system value="http://loinc.org"/>
        <code value="8867-4"/>
        <display value="heart_rate"/>
      </coding>
      <text value="heart_rate"/>
    </code>
    <valueQuantity>
      <value value="74.0"/>
      <unit value="{beats}/min"/>
      <system value="http://unitsofmeasure.org" />
      <code value="{beats}/min"/>
    </valueQuantity>
    
    <effectiveDateTime value="2003-04-11"/>
    <status value="final"/>
    <subject>
      <reference value="Patient/1291938"/>
    </subject>
    <encounter>
      <reference value="Encounter/781"/>
    </encounter>
    
  </Observation>
  
  </resource>
  <request>
    <method value="POST"/>
    <url value="Observation/781-heartrate"/>
  </request>
</entry>
<entry>
  <resource>
    
    
  <Observation>
  <id value="781-respiratoryrate"/>
    <text>
      <status value="generated"/>
      <div xmlns="http://www.w3.org/1999/xhtml">2003-04-11: respiratory_rate = 20.0 {breaths}/min</div>
    </text>
    <code>
      <coding>
        <system value="http://loinc.org"/>
        <code value="9279-1"/>
        <display value="respiratory_rate"/>
      </coding>
      <text value="respiratory_rate"/>
    </code>
    <valueQuantity>
      <value value="20.0"/>
      <unit value="{breaths}/min"/>
      <system value="http://unitsofmeasure.org" />
      <code value="{breaths}/min"/>
    </valueQuantity>
    
    <effectiveDateTime value="2003-04-11"/>
    <status value="final"/>
    <subject>
      <reference value="Patient/1291938"/>
    </subject>
    <encounter>
      <reference value="Encounter/781"/>
    </encounter>
    
  </Observation>
  
  </resource>
  <request>
    <method value="POST"/>
    <url value="Observation/781-respiratoryrate"/>
  </request>
</entry>
<entry>
  <resource>
    
    
  <Observation>
  <id value="781-temperature"/>
    <text>
      <status value="generated"/>
      <div xmlns="http://www.w3.org/1999/xhtml">2003-04-11: temperature = 36.05556 Cel</div>
    </text>
    <code>
      <coding>
        <system value="http://loinc.org"/>
        <code value="8310-5"/>
        <display value="temperature"/>
      </coding>
      <text value="temperature"/>
    </code>
    <valueQuantity>
      <value value="36.05556"/>
      <unit value="Cel"/>
      <system value="http://unitsofmeasure.org" />
      <code value="Cel"/>
    </valueQuantity>
    
    <effectiveDateTime value="2003-04-11"/>
    <status value="final"/>
    <subject>
      <reference value="Patient/1291938"/>
    </subject>
    <encounter>
      <reference value="Encounter/781"/>
    </encounter>
    
  </Observation>
  
  </resource>
  <request>
    <method value="POST"/>
    <url value="Observation/781-temperature"/>
  </request>
</entry>
<entry>
  <resource>
    
    
  <Observation>
  <id value="781-weight"/>
    <text>
      <status value="generated"/>
      <div xmlns="http://www.w3.org/1999/xhtml">2003-04-11: weight = 95.98015 kg</div>
    </text>
    <code>
      <coding>
        <system value="http://loinc.org"/>
        <code value="3141-9"/>
        <display value="weight"/>
      </coding>
      <text value="weight"/>
    </code>
    <valueQuantity>
      <value value="95.98015"/>
      <unit value="kg"/>
      <system value="http://unitsofmeasure.org" />
      <code value="kg"/>
    </valueQuantity>
    
    <effectiveDateTime value="2003-04-11"/>
    <status value="final"/>
    <subject>
      <reference value="Patient/1291938"/>
    </subject>
    <encounter>
      <reference value="Encounter/781"/>
    </encounter>
    
  </Observation>
  
  </resource>
  <request>
    <method value="POST"/>
    <url value="Observation/781-weight"/>
  </request>
</entry>
<entry>
  <resource>
    
    
  <Observation>
  <id value="781-bmi"/>
    <text>
      <status value="generated"/>
      <div xmlns="http://www.w3.org/1999/xhtml">2003-04-11: bmi = 31.8 kg/m2</div>
    </text>
    <code>
      <coding>
        <system value="http://loinc.org"/>
        <code value="39156-5"/>
        <display value="bmi"/>
      </coding>
      <text value="bmi"/>
    </code>
    <valueQuantity>
      <value value="31.8"/>
      <unit value="kg/m2"/>
      <system value="http://unitsofmeasure.org" />
      <code value="kg/m2"/>
    </valueQuantity>
    
    <effectiveDateTime value="2003-04-11"/>
    <status value="final"/>
    <subject>
      <reference value="Patient/1291938"/>
    </subject>
    <encounter>
      <reference value="Encounter/781"/>
    </encounter>
    
  </Observation>
  
  </resource>
  <request>
    <method value="POST"/>
    <url value="Observation/781-bmi"/>
  </request>
</entry>
<entry>
  <resource>
    
    
  <Observation>
  <id value="781-oxygensaturation"/>
    <text>
      <status value="generated"/>
      <div xmlns="http://www.w3.org/1999/xhtml">2003-04-11: oxygen_saturation = 97.0 %{HemoglobinSaturation}</div>
    </text>
    <code>
      <coding>
        <system value="http://loinc.org"/>
        <code value="2710-2"/>
        <display value="oxygen_saturation"/>
      </coding>
      <text value="oxygen_saturation"/>
    </code>
    <valueQuantity>
      <value value="97.0"/>
      <unit value="%{HemoglobinSaturation}"/>
      <system value="http://unitsofmeasure.org" />
      <code value="%{HemoglobinSaturation}"/>
    </valueQuantity>
    
    <effectiveDateTime value="2003-04-11"/>
    <status value="final"/>
    <subject>
      <reference value="Patient/1291938"/>
    </subject>
    <encounter>
      <reference value="Encounter/781"/>
    </encounter>
    
  </Observation>
  
  </resource>
  <request>
    <method value="POST"/>
    <url value="Observation/781-oxygensaturation"/>
  </request>
</entry>
<entry>
  <resource>
    
    
  <Observation>
  <id value="782-height"/>
    <text>
      <status value="generated"/>
      <div xmlns="http://www.w3.org/1999/xhtml">2003-04-14: height = 173.99 cm</div>
    </text>
    <code>
      <coding>
        <system value="http://loinc.org"/>
        <code value="8302-2"/>
        <display value="height"/>
      </coding>
      <text value="height"/>
    </code>
    <valueQuantity>
      <value value="173.99"/>
      <unit value="cm"/>
      <system value="http://unitsofmeasure.org" />
      <code value="cm"/>
    </valueQuantity>
    
    <effectiveDateTime value="2003-04-14"/>
    <status value="final"/>
    <subject>
      <reference value="Patient/1291938"/>
    </subject>
    <encounter>
      <reference value="Encounter/782"/>
    </encounter>
    
  </Observation>
  
  </resource>
  <request>
    <method value="POST"/>
    <url value="Observation/782-height"/>
  </request>
</entry>
<entry>
  <resource>
    
    
  <Observation>
  <id value="782-heartrate"/>
    <text>
      <status value="generated"/>
      <div xmlns="http://www.w3.org/1999/xhtml">2003-04-14: heart_rate = 75.0 {beats}/min</div>
    </text>
    <code>
      <coding>
        <system value="http://loinc.org"/>
        <code value="8867-4"/>
        <display value="heart_rate"/>
      </coding>
      <text value="heart_rate"/>
    </code>
    <valueQuantity>
      <value value="75.0"/>
      <unit value="{beats}/min"/>
      <system value="http://unitsofmeasure.org" />
      <code value="{beats}/min"/>
    </valueQuantity>
    
    <effectiveDateTime value="2003-04-14"/>
    <status value="final"/>
    <subject>
      <reference value="Patient/1291938"/>
    </subject>
    <encounter>
      <reference value="Encounter/782"/>
    </encounter>
    
  </Observation>
  
  </resource>
  <request>
    <method value="POST"/>
    <url value="Observation/782-heartrate"/>
  </request>
</entry>
<entry>
  <resource>
    
    
  <Observation>
  <id value="782-respiratoryrate"/>
    <text>
      <status value="generated"/>
      <div xmlns="http://www.w3.org/1999/xhtml">2003-04-14: respiratory_rate = 20.0 {breaths}/min</div>
    </text>
    <code>
      <coding>
        <system value="http://loinc.org"/>
        <code value="9279-1"/>
        <display value="respiratory_rate"/>
      </coding>
      <text value="respiratory_rate"/>
    </code>
    <valueQuantity>
      <value value="20.0"/>
      <unit value="{breaths}/min"/>
      <system value="http://unitsofmeasure.org" />
      <code value="{breaths}/min"/>
    </valueQuantity>
    
    <effectiveDateTime value="2003-04-14"/>
    <status value="final"/>
    <subject>
      <reference value="Patient/1291938"/>
    </subject>
    <encounter>
      <reference value="Encounter/782"/>
    </encounter>
    
  </Observation>
  
  </resource>
  <request>
    <method value="POST"/>
    <url value="Observation/782-respiratoryrate"/>
  </request>
</entry>
<entry>
  <resource>
    
    
  <Observation>
  <id value="782-temperature"/>
    <text>
      <status value="generated"/>
      <div xmlns="http://www.w3.org/1999/xhtml">2003-04-14: temperature = 36.11111 Cel</div>
    </text>
    <code>
      <coding>
        <system value="http://loinc.org"/>
        <code value="8310-5"/>
        <display value="temperature"/>
      </coding>
      <text value="temperature"/>
    </code>
    <valueQuantity>
      <value value="36.11111"/>
      <unit value="Cel"/>
      <system value="http://unitsofmeasure.org" />
      <code value="Cel"/>
    </valueQuantity>
    
    <effectiveDateTime value="2003-04-14"/>
    <status value="final"/>
    <subject>
      <reference value="Patient/1291938"/>
    </subject>
    <encounter>
      <reference value="Encounter/782"/>
    </encounter>
    
  </Observation>
  
  </resource>
  <request>
    <method value="POST"/>
    <url value="Observation/782-temperature"/>
  </request>
</entry>
<entry>
  <resource>
    
    
  <Observation>
  <id value="782-weight"/>
    <text>
      <status value="generated"/>
      <div xmlns="http://www.w3.org/1999/xhtml">2003-04-14: weight = 94.66473 kg</div>
    </text>
    <code>
      <coding>
        <system value="http://loinc.org"/>
        <code value="3141-9"/>
        <display value="weight"/>
      </coding>
      <text value="weight"/>
    </code>
    <valueQuantity>
      <value value="94.66473"/>
      <unit value="kg"/>
      <system value="http://unitsofmeasure.org" />
      <code value="kg"/>
    </valueQuantity>
    
    <effectiveDateTime value="2003-04-14"/>
    <status value="final"/>
    <subject>
      <reference value="Patient/1291938"/>
    </subject>
    <encounter>
      <reference value="Encounter/782"/>
    </encounter>
    
  </Observation>
  
  </resource>
  <request>
    <method value="POST"/>
    <url value="Observation/782-weight"/>
  </request>
</entry>
<entry>
  <resource>
    
    
  <Observation>
  <id value="782-bmi"/>
    <text>
      <status value="generated"/>
      <div xmlns="http://www.w3.org/1999/xhtml">2003-04-14: bmi = 31.3 kg/m2</div>
    </text>
    <code>
      <coding>
        <system value="http://loinc.org"/>
        <code value="39156-5"/>
        <display value="bmi"/>
      </coding>
      <text value="bmi"/>
    </code>
    <valueQuantity>
      <value value="31.3"/>
      <unit value="kg/m2"/>
      <system value="http://unitsofmeasure.org" />
      <code value="kg/m2"/>
    </valueQuantity>
    
    <effectiveDateTime value="2003-04-14"/>
    <status value="final"/>
    <subject>
      <reference value="Patient/1291938"/>
    </subject>
    <encounter>
      <reference value="Encounter/782"/>
    </encounter>
    
  </Observation>
  
  </resource>
  <request>
    <method value="POST"/>
    <url value="Observation/782-bmi"/>
  </request>
</entry>
<entry>
  <resource>
    
    
  <Observation>
  <id value="782-oxygensaturation"/>
    <text>
      <status value="generated"/>
      <div xmlns="http://www.w3.org/1999/xhtml">2003-04-14: oxygen_saturation = 97.0 %{HemoglobinSaturation}</div>
    </text>
    <code>
      <coding>
        <system value="http://loinc.org"/>
        <code value="2710-2"/>
        <display value="oxygen_saturation"/>
      </coding>
      <text value="oxygen_saturation"/>
    </code>
    <valueQuantity>
      <value value="97.0"/>
      <unit value="%{HemoglobinSaturation}"/>
      <system value="http://unitsofmeasure.org" />
      <code value="%{HemoglobinSaturation}"/>
    </valueQuantity>
    
    <effectiveDateTime value="2003-04-14"/>
    <status value="final"/>
    <subject>
      <reference value="Patient/1291938"/>
    </subject>
    <encounter>
      <reference value="Encounter/782"/>
    </encounter>
    
  </Observation>
  
  </resource>
  <request>
    <method value="POST"/>
    <url value="Observation/782-oxygensaturation"/>
  </request>
</entry>
<entry>
  <resource>
    
    
  <Observation>
  <id value="783-height"/>
    <text>
      <status value="generated"/>
      <div xmlns="http://www.w3.org/1999/xhtml">2003-04-15: height = 173.99 cm</div>
    </text>
    <code>
      <coding>
        <system value="http://loinc.org"/>
        <code value="8302-2"/>
        <display value="height"/>
      </coding>
      <text value="height"/>
    </code>
    <valueQuantity>
      <value value="173.99"/>
      <unit value="cm"/>
      <system value="http://unitsofmeasure.org" />
      <code value="cm"/>
    </valueQuantity>
    
    <effectiveDateTime value="2003-04-15"/>
    <status value="final"/>
    <subject>
      <reference value="Patient/1291938"/>
    </subject>
    <encounter>
      <reference value="Encounter/783"/>
    </encounter>
    
  </Observation>
  
  </resource>
  <request>
    <method value="POST"/>
    <url value="Observation/783-height"/>
  </request>
</entry>
<entry>
  <resource>
    
    
  <Observation>
  <id value="783-heartrate"/>
    <text>
      <status value="generated"/>
      <div xmlns="http://www.w3.org/1999/xhtml">2003-04-15: heart_rate = 73.0 {beats}/min</div>
    </text>
    <code>
      <coding>
        <system value="http://loinc.org"/>
        <code value="8867-4"/>
        <display value="heart_rate"/>
      </coding>
      <text value="heart_rate"/>
    </code>
    <valueQuantity>
      <value value="73.0"/>
      <unit value="{beats}/min"/>
      <system value="http://unitsofmeasure.org" />
      <code value="{beats}/min"/>
    </valueQuantity>
    
    <effectiveDateTime value="2003-04-15"/>
    <status value="final"/>
    <subject>
      <reference value="Patient/1291938"/>
    </subject>
    <encounter>
      <reference value="Encounter/783"/>
    </encounter>
    
  </Observation>
  
  </resource>
  <request>
    <method value="POST"/>
    <url value="Observation/783-heartrate"/>
  </request>
</entry>
<entry>
  <resource>
    
    
  <Observation>
  <id value="783-respiratoryrate"/>
    <text>
      <status value="generated"/>
      <div xmlns="http://www.w3.org/1999/xhtml">2003-04-15: respiratory_rate = 20.0 {breaths}/min</div>
    </text>
    <code>
      <coding>
        <system value="http://loinc.org"/>
        <code value="9279-1"/>
        <display value="respiratory_rate"/>
      </coding>
      <text value="respiratory_rate"/>
    </code>
    <valueQuantity>
      <value value="20.0"/>
      <unit value="{breaths}/min"/>
      <system value="http://unitsofmeasure.org" />
      <code value="{breaths}/min"/>
    </valueQuantity>
    
    <effectiveDateTime value="2003-04-15"/>
    <status value="final"/>
    <subject>
      <reference value="Patient/1291938"/>
    </subject>
    <encounter>
      <reference value="Encounter/783"/>
    </encounter>
    
  </Observation>
  
  </resource>
  <request>
    <method value="POST"/>
    <url value="Observation/783-respiratoryrate"/>
  </request>
</entry>
<entry>
  <resource>
    
    
  <Observation>
  <id value="783-temperature"/>
    <text>
      <status value="generated"/>
      <div xmlns="http://www.w3.org/1999/xhtml">2003-04-15: temperature = 36.05556 Cel</div>
    </text>
    <code>
      <coding>
        <system value="http://loinc.org"/>
        <code value="8310-5"/>
        <display value="temperature"/>
      </coding>
      <text value="temperature"/>
    </code>
    <valueQuantity>
      <value value="36.05556"/>
      <unit value="Cel"/>
      <system value="http://unitsofmeasure.org" />
      <code value="Cel"/>
    </valueQuantity>
    
    <effectiveDateTime value="2003-04-15"/>
    <status value="final"/>
    <subject>
      <reference value="Patient/1291938"/>
    </subject>
    <encounter>
      <reference value="Encounter/783"/>
    </encounter>
    
  </Observation>
  
  </resource>
  <request>
    <method value="POST"/>
    <url value="Observation/783-temperature"/>
  </request>
</entry>
<entry>
  <resource>
    
    
  <Observation>
  <id value="783-weight"/>
    <text>
      <status value="generated"/>
      <div xmlns="http://www.w3.org/1999/xhtml">2003-04-15: weight = 94.89152 kg</div>
    </text>
    <code>
      <coding>
        <system value="http://loinc.org"/>
        <code value="3141-9"/>
        <display value="weight"/>
      </coding>
      <text value="weight"/>
    </code>
    <valueQuantity>
      <value value="94.89152"/>
      <unit value="kg"/>
      <system value="http://unitsofmeasure.org" />
      <code value="kg"/>
    </valueQuantity>
    
    <effectiveDateTime value="2003-04-15"/>
    <status value="final"/>
    <subject>
      <reference value="Patient/1291938"/>
    </subject>
    <encounter>
      <reference value="Encounter/783"/>
    </encounter>
    
  </Observation>
  
  </resource>
  <request>
    <method value="POST"/>
    <url value="Observation/783-weight"/>
  </request>
</entry>
<entry>
  <resource>
    
    
  <Observation>
  <id value="783-bmi"/>
    <text>
      <status value="generated"/>
      <div xmlns="http://www.w3.org/1999/xhtml">2003-04-15: bmi = 31.3 kg/m2</div>
    </text>
    <code>
      <coding>
        <system value="http://loinc.org"/>
        <code value="39156-5"/>
        <display value="bmi"/>
      </coding>
      <text value="bmi"/>
    </code>
    <valueQuantity>
      <value value="31.3"/>
      <unit value="kg/m2"/>
      <system value="http://unitsofmeasure.org" />
      <code value="kg/m2"/>
    </valueQuantity>
    
    <effectiveDateTime value="2003-04-15"/>
    <status value="final"/>
    <subject>
      <reference value="Patient/1291938"/>
    </subject>
    <encounter>
      <reference value="Encounter/783"/>
    </encounter>
    
  </Observation>
  
  </resource>
  <request>
    <method value="POST"/>
    <url value="Observation/783-bmi"/>
  </request>
</entry>
<entry>
  <resource>
    
    
  <Observation>
  <id value="783-oxygensaturation"/>
    <text>
      <status value="generated"/>
      <div xmlns="http://www.w3.org/1999/xhtml">2003-04-15: oxygen_saturation = 97.0 %{HemoglobinSaturation}</div>
    </text>
    <code>
      <coding>
        <system value="http://loinc.org"/>
        <code value="2710-2"/>
        <display value="oxygen_saturation"/>
      </coding>
      <text value="oxygen_saturation"/>
    </code>
    <valueQuantity>
      <value value="97.0"/>
      <unit value="%{HemoglobinSaturation}"/>
      <system value="http://unitsofmeasure.org" />
      <code value="%{HemoglobinSaturation}"/>
    </valueQuantity>
    
    <effectiveDateTime value="2003-04-15"/>
    <status value="final"/>
    <subject>
      <reference value="Patient/1291938"/>
    </subject>
    <encounter>
      <reference value="Encounter/783"/>
    </encounter>
    
  </Observation>
  
  </resource>
  <request>
    <method value="POST"/>
    <url value="Observation/783-oxygensaturation"/>
  </request>
</entry>
<entry>
  <resource>
    
    
  <Observation>
  <id value="784-height"/>
    <text>
      <status value="generated"/>
      <div xmlns="http://www.w3.org/1999/xhtml">2006-03-14: height = 171.45 cm</div>
    </text>
    <code>
      <coding>
        <system value="http://loinc.org"/>
        <code value="8302-2"/>
        <display value="height"/>
      </coding>
      <text value="height"/>
    </code>
    <valueQuantity>
      <value value="171.45"/>
      <unit value="cm"/>
      <system value="http://unitsofmeasure.org" />
      <code value="cm"/>
    </valueQuantity>
    
    <effectiveDateTime value="2006-03-14"/>
    <status value="final"/>
    <subject>
      <reference value="Patient/1291938"/>
    </subject>
    <encounter>
      <reference value="Encounter/784"/>
    </encounter>
    
  </Observation>
  
  </resource>
  <request>
    <method value="POST"/>
    <url value="Observation/784-height"/>
  </request>
</entry>
<entry>
  <resource>
    
    
  <Observation>
  <id value="784-heartrate"/>
    <text>
      <status value="generated"/>
      <div xmlns="http://www.w3.org/1999/xhtml">2006-03-14: heart_rate = 74.0 {beats}/min</div>
    </text>
    <code>
      <coding>
        <system value="http://loinc.org"/>
        <code value="8867-4"/>
        <display value="heart_rate"/>
      </coding>
      <text value="heart_rate"/>
    </code>
    <valueQuantity>
      <value value="74.0"/>
      <unit value="{beats}/min"/>
      <system value="http://unitsofmeasure.org" />
      <code value="{beats}/min"/>
    </valueQuantity>
    
    <effectiveDateTime value="2006-03-14"/>
    <status value="final"/>
    <subject>
      <reference value="Patient/1291938"/>
    </subject>
    <encounter>
      <reference value="Encounter/784"/>
    </encounter>
    
  </Observation>
  
  </resource>
  <request>
    <method value="POST"/>
    <url value="Observation/784-heartrate"/>
  </request>
</entry>
<entry>
  <resource>
    
    
  <Observation>
  <id value="784-respiratoryrate"/>
    <text>
      <status value="generated"/>
      <div xmlns="http://www.w3.org/1999/xhtml">2006-03-14: respiratory_rate = 19.0 {breaths}/min</div>
    </text>
    <code>
      <coding>
        <system value="http://loinc.org"/>
        <code value="9279-1"/>
        <display value="respiratory_rate"/>
      </coding>
      <text value="respiratory_rate"/>
    </code>
    <valueQuantity>
      <value value="19.0"/>
      <unit value="{breaths}/min"/>
      <system value="http://unitsofmeasure.org" />
      <code value="{breaths}/min"/>
    </valueQuantity>
    
    <effectiveDateTime value="2006-03-14"/>
    <status value="final"/>
    <subject>
      <reference value="Patient/1291938"/>
    </subject>
    <encounter>
      <reference value="Encounter/784"/>
    </encounter>
    
  </Observation>
  
  </resource>
  <request>
    <method value="POST"/>
    <url value="Observation/784-respiratoryrate"/>
  </request>
</entry>
<entry>
  <resource>
    
    
  <Observation>
  <id value="784-temperature"/>
    <text>
      <status value="generated"/>
      <div xmlns="http://www.w3.org/1999/xhtml">2006-03-14: temperature = 36.11111 Cel</div>
    </text>
    <code>
      <coding>
        <system value="http://loinc.org"/>
        <code value="8310-5"/>
        <display value="temperature"/>
      </coding>
      <text value="temperature"/>
    </code>
    <valueQuantity>
      <value value="36.11111"/>
      <unit value="Cel"/>
      <system value="http://unitsofmeasure.org" />
      <code value="Cel"/>
    </valueQuantity>
    
    <effectiveDateTime value="2006-03-14"/>
    <status value="final"/>
    <subject>
      <reference value="Patient/1291938"/>
    </subject>
    <encounter>
      <reference value="Encounter/784"/>
    </encounter>
    
  </Observation>
  
  </resource>
  <request>
    <method value="POST"/>
    <url value="Observation/784-temperature"/>
  </request>
</entry>
<entry>
  <resource>
    
    
  <Observation>
  <id value="784-weight"/>
    <text>
      <status value="generated"/>
      <div xmlns="http://www.w3.org/1999/xhtml">2006-03-14: weight = 90.31024 kg</div>
    </text>
    <code>
      <coding>
        <system value="http://loinc.org"/>
        <code value="3141-9"/>
        <display value="weight"/>
      </coding>
      <text value="weight"/>
    </code>
    <valueQuantity>
      <value value="90.31024"/>
      <unit value="kg"/>
      <system value="http://unitsofmeasure.org" />
      <code value="kg"/>
    </valueQuantity>
    
    <effectiveDateTime value="2006-03-14"/>
    <status value="final"/>
    <subject>
      <reference value="Patient/1291938"/>
    </subject>
    <encounter>
      <reference value="Encounter/784"/>
    </encounter>
    
  </Observation>
  
  </resource>
  <request>
    <method value="POST"/>
    <url value="Observation/784-weight"/>
  </request>
</entry>
<entry>
  <resource>
    
    
  <Observation>
  <id value="784-bmi"/>
    <text>
      <status value="generated"/>
      <div xmlns="http://www.w3.org/1999/xhtml">2006-03-14: bmi = 30.7 kg/m2</div>
    </text>
    <code>
      <coding>
        <system value="http://loinc.org"/>
        <code value="39156-5"/>
        <display value="bmi"/>
      </coding>
      <text value="bmi"/>
    </code>
    <valueQuantity>
      <value value="30.7"/>
      <unit value="kg/m2"/>
      <system value="http://unitsofmeasure.org" />
      <code value="kg/m2"/>
    </valueQuantity>
    
    <effectiveDateTime value="2006-03-14"/>
    <status value="final"/>
    <subject>
      <reference value="Patient/1291938"/>
    </subject>
    <encounter>
      <reference value="Encounter/784"/>
    </encounter>
    
  </Observation>
  
  </resource>
  <request>
    <method value="POST"/>
    <url value="Observation/784-bmi"/>
  </request>
</entry>
<entry>
  <resource>
    
    
  <Observation>
  <id value="784-oxygensaturation"/>
    <text>
      <status value="generated"/>
      <div xmlns="http://www.w3.org/1999/xhtml">2006-03-14: oxygen_saturation = 98.0 %{HemoglobinSaturation}</div>
    </text>
    <code>
      <coding>
        <system value="http://loinc.org"/>
        <code value="2710-2"/>
        <display value="oxygen_saturation"/>
      </coding>
      <text value="oxygen_saturation"/>
    </code>
    <valueQuantity>
      <value value="98.0"/>
      <unit value="%{HemoglobinSaturation}"/>
      <system value="http://unitsofmeasure.org" />
      <code value="%{HemoglobinSaturation}"/>
    </valueQuantity>
    
    <effectiveDateTime value="2006-03-14"/>
    <status value="final"/>
    <subject>
      <reference value="Patient/1291938"/>
    </subject>
    <encounter>
      <reference value="Encounter/784"/>
    </encounter>
    
  </Observation>
  
  </resource>
  <request>
    <method value="POST"/>
    <url value="Observation/784-oxygensaturation"/>
  </request>
</entry>
<entry>
  <resource>
    
    
  <Observation>
  <id value="785-height"/>
    <text>
      <status value="generated"/>
      <div xmlns="http://www.w3.org/1999/xhtml">2006-03-15: height = 172.212 cm</div>
    </text>
    <code>
      <coding>
        <system value="http://loinc.org"/>
        <code value="8302-2"/>
        <display value="height"/>
      </coding>
      <text value="height"/>
    </code>
    <valueQuantity>
      <value value="172.212"/>
      <unit value="cm"/>
      <system value="http://unitsofmeasure.org" />
      <code value="cm"/>
    </valueQuantity>
    
    <effectiveDateTime value="2006-03-15"/>
    <status value="final"/>
    <subject>
      <reference value="Patient/1291938"/>
    </subject>
    <encounter>
      <reference value="Encounter/785"/>
    </encounter>
    
  </Observation>
  
  </resource>
  <request>
    <method value="POST"/>
    <url value="Observation/785-height"/>
  </request>
</entry>
<entry>
  <resource>
    
    
  <Observation>
  <id value="785-heartrate"/>
    <text>
      <status value="generated"/>
      <div xmlns="http://www.w3.org/1999/xhtml">2006-03-15: heart_rate = 73.0 {beats}/min</div>
    </text>
    <code>
      <coding>
        <system value="http://loinc.org"/>
        <code value="8867-4"/>
        <display value="heart_rate"/>
      </coding>
      <text value="heart_rate"/>
    </code>
    <valueQuantity>
      <value value="73.0"/>
      <unit value="{beats}/min"/>
      <system value="http://unitsofmeasure.org" />
      <code value="{beats}/min"/>
    </valueQuantity>
    
    <effectiveDateTime value="2006-03-15"/>
    <status value="final"/>
    <subject>
      <reference value="Patient/1291938"/>
    </subject>
    <encounter>
      <reference value="Encounter/785"/>
    </encounter>
    
  </Observation>
  
  </resource>
  <request>
    <method value="POST"/>
    <url value="Observation/785-heartrate"/>
  </request>
</entry>
<entry>
  <resource>
    
    
  <Observation>
  <id value="785-respiratoryrate"/>
    <text>
      <status value="generated"/>
      <div xmlns="http://www.w3.org/1999/xhtml">2006-03-15: respiratory_rate = 19.0 {breaths}/min</div>
    </text>
    <code>
      <coding>
        <system value="http://loinc.org"/>
        <code value="9279-1"/>
        <display value="respiratory_rate"/>
      </coding>
      <text value="respiratory_rate"/>
    </code>
    <valueQuantity>
      <value value="19.0"/>
      <unit value="{breaths}/min"/>
      <system value="http://unitsofmeasure.org" />
      <code value="{breaths}/min"/>
    </valueQuantity>
    
    <effectiveDateTime value="2006-03-15"/>
    <status value="final"/>
    <subject>
      <reference value="Patient/1291938"/>
    </subject>
    <encounter>
      <reference value="Encounter/785"/>
    </encounter>
    
  </Observation>
  
  </resource>
  <request>
    <method value="POST"/>
    <url value="Observation/785-respiratoryrate"/>
  </request>
</entry>
<entry>
  <resource>
    
    
  <Observation>
  <id value="785-temperature"/>
    <text>
      <status value="generated"/>
      <div xmlns="http://www.w3.org/1999/xhtml">2006-03-15: temperature = 36.05556 Cel</div>
    </text>
    <code>
      <coding>
        <system value="http://loinc.org"/>
        <code value="8310-5"/>
        <display value="temperature"/>
      </coding>
      <text value="temperature"/>
    </code>
    <valueQuantity>
      <value value="36.05556"/>
      <unit value="Cel"/>
      <system value="http://unitsofmeasure.org" />
      <code value="Cel"/>
    </valueQuantity>
    
    <effectiveDateTime value="2006-03-15"/>
    <status value="final"/>
    <subject>
      <reference value="Patient/1291938"/>
    </subject>
    <encounter>
      <reference value="Encounter/785"/>
    </encounter>
    
  </Observation>
  
  </resource>
  <request>
    <method value="POST"/>
    <url value="Observation/785-temperature"/>
  </request>
</entry>
<entry>
  <resource>
    
    
  <Observation>
  <id value="785-weight"/>
    <text>
      <status value="generated"/>
      <div xmlns="http://www.w3.org/1999/xhtml">2006-03-15: weight = 88.08764 kg</div>
    </text>
    <code>
      <coding>
        <system value="http://loinc.org"/>
        <code value="3141-9"/>
        <display value="weight"/>
      </coding>
      <text value="weight"/>
    </code>
    <valueQuantity>
      <value value="88.08764"/>
      <unit value="kg"/>
      <system value="http://unitsofmeasure.org" />
      <code value="kg"/>
    </valueQuantity>
    
    <effectiveDateTime value="2006-03-15"/>
    <status value="final"/>
    <subject>
      <reference value="Patient/1291938"/>
    </subject>
    <encounter>
      <reference value="Encounter/785"/>
    </encounter>
    
  </Observation>
  
  </resource>
  <request>
    <method value="POST"/>
    <url value="Observation/785-weight"/>
  </request>
</entry>
<entry>
  <resource>
    
    
  <Observation>
  <id value="785-bmi"/>
    <text>
      <status value="generated"/>
      <div xmlns="http://www.w3.org/1999/xhtml">2006-03-15: bmi = 29.7 kg/m2</div>
    </text>
    <code>
      <coding>
        <system value="http://loinc.org"/>
        <code value="39156-5"/>
        <display value="bmi"/>
      </coding>
      <text value="bmi"/>
    </code>
    <valueQuantity>
      <value value="29.7"/>
      <unit value="kg/m2"/>
      <system value="http://unitsofmeasure.org" />
      <code value="kg/m2"/>
    </valueQuantity>
    
    <effectiveDateTime value="2006-03-15"/>
    <status value="final"/>
    <subject>
      <reference value="Patient/1291938"/>
    </subject>
    <encounter>
      <reference value="Encounter/785"/>
    </encounter>
    
  </Observation>
  
  </resource>
  <request>
    <method value="POST"/>
    <url value="Observation/785-bmi"/>
  </request>
</entry>
<entry>
  <resource>
    
    
  <Observation>
  <id value="785-oxygensaturation"/>
    <text>
      <status value="generated"/>
      <div xmlns="http://www.w3.org/1999/xhtml">2006-03-15: oxygen_saturation = 98.0 %{HemoglobinSaturation}</div>
    </text>
    <code>
      <coding>
        <system value="http://loinc.org"/>
        <code value="2710-2"/>
        <display value="oxygen_saturation"/>
      </coding>
      <text value="oxygen_saturation"/>
    </code>
    <valueQuantity>
      <value value="98.0"/>
      <unit value="%{HemoglobinSaturation}"/>
      <system value="http://unitsofmeasure.org" />
      <code value="%{HemoglobinSaturation}"/>
    </valueQuantity>
    
    <effectiveDateTime value="2006-03-15"/>
    <status value="final"/>
    <subject>
      <reference value="Patient/1291938"/>
    </subject>
    <encounter>
      <reference value="Encounter/785"/>
    </encounter>
    
  </Observation>
  
  </resource>
  <request>
    <method value="POST"/>
    <url value="Observation/785-oxygensaturation"/>
  </request>
</entry>
<entry>
  <resource>
    
    
  <Observation>
  <id value="786-height"/>
    <text>
      <status value="generated"/>
      <div xmlns="http://www.w3.org/1999/xhtml">2006-03-16: height = 171.704 cm</div>
    </text>
    <code>
      <coding>
        <system value="http://loinc.org"/>
        <code value="8302-2"/>
        <display value="height"/>
      </coding>
      <text value="height"/>
    </code>
    <valueQuantity>
      <value value="171.704"/>
      <unit value="cm"/>
      <system value="http://unitsofmeasure.org" />
      <code value="cm"/>
    </valueQuantity>
    
    <effectiveDateTime value="2006-03-16"/>
    <status value="final"/>
    <subject>
      <reference value="Patient/1291938"/>
    </subject>
    <encounter>
      <reference value="Encounter/786"/>
    </encounter>
    
  </Observation>
  
  </resource>
  <request>
    <method value="POST"/>
    <url value="Observation/786-height"/>
  </request>
</entry>
<entry>
  <resource>
    
    
  <Observation>
  <id value="786-heartrate"/>
    <text>
      <status value="generated"/>
      <div xmlns="http://www.w3.org/1999/xhtml">2006-03-16: heart_rate = 72.0 {beats}/min</div>
    </text>
    <code>
      <coding>
        <system value="http://loinc.org"/>
        <code value="8867-4"/>
        <display value="heart_rate"/>
      </coding>
      <text value="heart_rate"/>
    </code>
    <valueQuantity>
      <value value="72.0"/>
      <unit value="{beats}/min"/>
      <system value="http://unitsofmeasure.org" />
      <code value="{beats}/min"/>
    </valueQuantity>
    
    <effectiveDateTime value="2006-03-16"/>
    <status value="final"/>
    <subject>
      <reference value="Patient/1291938"/>
    </subject>
    <encounter>
      <reference value="Encounter/786"/>
    </encounter>
    
  </Observation>
  
  </resource>
  <request>
    <method value="POST"/>
    <url value="Observation/786-heartrate"/>
  </request>
</entry>
<entry>
  <resource>
    
    
  <Observation>
  <id value="786-respiratoryrate"/>
    <text>
      <status value="generated"/>
      <div xmlns="http://www.w3.org/1999/xhtml">2006-03-16: respiratory_rate = 19.0 {breaths}/min</div>
    </text>
    <code>
      <coding>
        <system value="http://loinc.org"/>
        <code value="9279-1"/>
        <display value="respiratory_rate"/>
      </coding>
      <text value="respiratory_rate"/>
    </code>
    <valueQuantity>
      <value value="19.0"/>
      <unit value="{breaths}/min"/>
      <system value="http://unitsofmeasure.org" />
      <code value="{breaths}/min"/>
    </valueQuantity>
    
    <effectiveDateTime value="2006-03-16"/>
    <status value="final"/>
    <subject>
      <reference value="Patient/1291938"/>
    </subject>
    <encounter>
      <reference value="Encounter/786"/>
    </encounter>
    
  </Observation>
  
  </resource>
  <request>
    <method value="POST"/>
    <url value="Observation/786-respiratoryrate"/>
  </request>
</entry>
<entry>
  <resource>
    
    
  <Observation>
  <id value="786-temperature"/>
    <text>
      <status value="generated"/>
      <div xmlns="http://www.w3.org/1999/xhtml">2006-03-16: temperature = 36.05556 Cel</div>
    </text>
    <code>
      <coding>
        <system value="http://loinc.org"/>
        <code value="8310-5"/>
        <display value="temperature"/>
      </coding>
      <text value="temperature"/>
    </code>
    <valueQuantity>
      <value value="36.05556"/>
      <unit value="Cel"/>
      <system value="http://unitsofmeasure.org" />
      <code value="Cel"/>
    </valueQuantity>
    
    <effectiveDateTime value="2006-03-16"/>
    <status value="final"/>
    <subject>
      <reference value="Patient/1291938"/>
    </subject>
    <encounter>
      <reference value="Encounter/786"/>
    </encounter>
    
  </Observation>
  
  </resource>
  <request>
    <method value="POST"/>
    <url value="Observation/786-temperature"/>
  </request>
</entry>
<entry>
  <resource>
    
    
  <Observation>
  <id value="786-weight"/>
    <text>
      <status value="generated"/>
      <div xmlns="http://www.w3.org/1999/xhtml">2006-03-16: weight = 93.12251 kg</div>
    </text>
    <code>
      <coding>
        <system value="http://loinc.org"/>
        <code value="3141-9"/>
        <display value="weight"/>
      </coding>
      <text value="weight"/>
    </code>
    <valueQuantity>
      <value value="93.12251"/>
      <unit value="kg"/>
      <system value="http://unitsofmeasure.org" />
      <code value="kg"/>
    </valueQuantity>
    
    <effectiveDateTime value="2006-03-16"/>
    <status value="final"/>
    <subject>
      <reference value="Patient/1291938"/>
    </subject>
    <encounter>
      <reference value="Encounter/786"/>
    </encounter>
    
  </Observation>
  
  </resource>
  <request>
    <method value="POST"/>
    <url value="Observation/786-weight"/>
  </request>
</entry>
<entry>
  <resource>
    
    
  <Observation>
  <id value="786-bmi"/>
    <text>
      <status value="generated"/>
      <div xmlns="http://www.w3.org/1999/xhtml">2006-03-16: bmi = 31.6 kg/m2</div>
    </text>
    <code>
      <coding>
        <system value="http://loinc.org"/>
        <code value="39156-5"/>
        <display value="bmi"/>
      </coding>
      <text value="bmi"/>
    </code>
    <valueQuantity>
      <value value="31.6"/>
      <unit value="kg/m2"/>
      <system value="http://unitsofmeasure.org" />
      <code value="kg/m2"/>
    </valueQuantity>
    
    <effectiveDateTime value="2006-03-16"/>
    <status value="final"/>
    <subject>
      <reference value="Patient/1291938"/>
    </subject>
    <encounter>
      <reference value="Encounter/786"/>
    </encounter>
    
  </Observation>
  
  </resource>
  <request>
    <method value="POST"/>
    <url value="Observation/786-bmi"/>
  </request>
</entry>
<entry>
  <resource>
    
    
  <Observation>
  <id value="786-oxygensaturation"/>
    <text>
      <status value="generated"/>
      <div xmlns="http://www.w3.org/1999/xhtml">2006-03-16: oxygen_saturation = 98.0 %{HemoglobinSaturation}</div>
    </text>
    <code>
      <coding>
        <system value="http://loinc.org"/>
        <code value="2710-2"/>
        <display value="oxygen_saturation"/>
      </coding>
      <text value="oxygen_saturation"/>
    </code>
    <valueQuantity>
      <value value="98.0"/>
      <unit value="%{HemoglobinSaturation}"/>
      <system value="http://unitsofmeasure.org" />
      <code value="%{HemoglobinSaturation}"/>
    </valueQuantity>
    
    <effectiveDateTime value="2006-03-16"/>
    <status value="final"/>
    <subject>
      <reference value="Patient/1291938"/>
    </subject>
    <encounter>
      <reference value="Encounter/786"/>
    </encounter>
    
  </Observation>
  
  </resource>
  <request>
    <method value="POST"/>
    <url value="Observation/786-oxygensaturation"/>
  </request>
</entry>
  <entry>
  <resource>
    
    
  <Condition>
  <id value="1"/>
    <text>
     <status value="generated"/>
     <div xmlns="http://www.w3.org/1999/xhtml">Primary malignant neoplasm of female breast</div>   
   </text>
    <patient>
      <reference value="Patient/1291938"/>
    </patient>
    <code> 
      <coding>
        <system value="http://snomed.info/sct"/>
        <code value="254837009"/>
        <display value="Primary malignant neoplasm of female breast"/>
      </coding>
      <text value="Primary malignant neoplasm of female breast"/>
    </code>
   <clinicalStatus value="confirmed"/>
   <onsetDateTime value="2007-05-23"/>
   
  </Condition>
  
  </resource>
  <request>
    <method value="POST"/>
    <url value="Condition/1"/>
  </request>
</entry>
  <entry>
  <resource>
    
    
  <Condition>
  <id value="2"/>
    <text>
     <status value="generated"/>
     <div xmlns="http://www.w3.org/1999/xhtml">Breast lump</div>   
   </text>
    <patient>
      <reference value="Patient/1291938"/>
    </patient>
    <code> 
      <coding>
        <system value="http://snomed.info/sct"/>
        <code value="89164003"/>
        <display value="Breast lump"/>
      </coding>
      <text value="Breast lump"/>
    </code>
   <clinicalStatus value="confirmed"/>
   <onsetDateTime value="2007-06-05"/>
   
  </Condition>
  
  </resource>
  <request>
    <method value="POST"/>
    <url value="Condition/2"/>
  </request>
</entry>
  <entry>
  <resource>
    
    
  <Condition>
  <id value="3"/>
    <text>
     <status value="generated"/>
     <div xmlns="http://www.w3.org/1999/xhtml">Carcinoma in situ of breast</div>   
   </text>
    <patient>
      <reference value="Patient/1291938"/>
    </patient>
    <code> 
      <coding>
        <system value="http://snomed.info/sct"/>
        <code value="189336000"/>
        <display value="Carcinoma in situ of breast"/>
      </coding>
      <text value="Carcinoma in situ of breast"/>
    </code>
   <clinicalStatus value="confirmed"/>
   <onsetDateTime value="2007-06-19"/>
   
  </Condition>
  
  </resource>
  <request>
    <method value="POST"/>
    <url value="Condition/3"/>
  </request>
</entry>
  <entry>
  <resource>
    
    
  <Condition>
  <id value="4"/>
    <text>
     <status value="generated"/>
     <div xmlns="http://www.w3.org/1999/xhtml">Needs influenza immunization</div>   
   </text>
    <patient>
      <reference value="Patient/1291938"/>
    </patient>
    <code> 
      <coding>
        <system value="http://snomed.info/sct"/>
        <code value="185903001"/>
        <display value="Needs influenza immunization"/>
      </coding>
      <text value="Needs influenza immunization"/>
    </code>
   <clinicalStatus value="confirmed"/>
   <onsetDateTime value="2007-07-17"/>
   
  </Condition>
  
  </resource>
  <request>
    <method value="POST"/>
    <url value="Condition/4"/>
  </request>
</entry>
  <entry>
  <resource>
    
    
  <Condition>
  <id value="5"/>
    <text>
     <status value="generated"/>
     <div xmlns="http://www.w3.org/1999/xhtml">Asymptomatic postmenopausal status (age-related) (natural)</div>   
   </text>
    <patient>
      <reference value="Patient/1291938"/>
    </patient>
    <code> 
      <coding>
        <system value="http://snomed.info/sct"/>
        <code value="76498008"/>
        <display value="Asymptomatic postmenopausal status (age-related) (natural)"/>
      </coding>
      <text value="Asymptomatic postmenopausal status (age-related) (natural)"/>
    </code>
   <clinicalStatus value="confirmed"/>
   <onsetDateTime value="2007-12-20"/>
   
  </Condition>
  
  </resource>
  <request>
    <method value="POST"/>
    <url value="Condition/5"/>
  </request>
</entry>
  <entry>
  <resource>
    
    
  <Condition>
  <id value="6"/>
    <text>
     <status value="generated"/>
     <div xmlns="http://www.w3.org/1999/xhtml">Ovarian failure</div>   
   </text>
    <patient>
      <reference value="Patient/1291938"/>
    </patient>
    <code> 
      <coding>
        <system value="http://snomed.info/sct"/>
        <code value="16041008"/>
        <display value="Ovarian failure"/>
      </coding>
      <text value="Ovarian failure"/>
    </code>
   <clinicalStatus value="confirmed"/>
   <onsetDateTime value="2007-12-20"/>
   
  </Condition>
  
  </resource>
  <request>
    <method value="POST"/>
    <url value="Condition/6"/>
  </request>
</entry>
  <entry>
  <resource>
    
    
  <Condition>
  <id value="7"/>
    <text>
     <status value="generated"/>
     <div xmlns="http://www.w3.org/1999/xhtml">Senile nuclear sclerosis</div>   
   </text>
    <patient>
      <reference value="Patient/1291938"/>
    </patient>
    <code> 
      <coding>
        <system value="http://snomed.info/sct"/>
        <code value="193589009"/>
        <display value="Senile nuclear sclerosis"/>
      </coding>
      <text value="Senile nuclear sclerosis"/>
    </code>
   <clinicalStatus value="confirmed"/>
   <onsetDateTime value="2008-02-07"/>
   
  </Condition>
  
  </resource>
  <request>
    <method value="POST"/>
    <url value="Condition/7"/>
  </request>
</entry>
  <entry>
  <resource>
    
    
  <Condition>
  <id value="8"/>
    <text>
     <status value="generated"/>
     <div xmlns="http://www.w3.org/1999/xhtml">Neoplasm of breast</div>   
   </text>
    <patient>
      <reference value="Patient/1291938"/>
    </patient>
    <code> 
      <coding>
        <system value="http://snomed.info/sct"/>
        <code value="126926005"/>
        <display value="Neoplasm of breast"/>
      </coding>
      <text value="Neoplasm of breast"/>
    </code>
   <clinicalStatus value="confirmed"/>
   <onsetDateTime value="2008-02-28"/>
   
  </Condition>
  
  </resource>
  <request>
    <method value="POST"/>
    <url value="Condition/8"/>
  </request>
</entry>
  <entry>
  <resource>
    
    
  <Condition>
  <id value="9"/>
    <text>
     <status value="generated"/>
     <div xmlns="http://www.w3.org/1999/xhtml">Postprocedural state finding</div>   
   </text>
    <patient>
      <reference value="Patient/1291938"/>
    </patient>
    <code> 
      <coding>
        <system value="http://snomed.info/sct"/>
        <code value="213299007"/>
        <display value="Postprocedural state finding"/>
      </coding>
      <text value="Postprocedural state finding"/>
    </code>
   <clinicalStatus value="confirmed"/>
   <onsetDateTime value="2008-02-28"/>
   
  </Condition>
  
  </resource>
  <request>
    <method value="POST"/>
    <url value="Condition/9"/>
  </request>
</entry>
  <entry>
  <resource>
    
    
  <Condition>
  <id value="10"/>
    <text>
     <status value="generated"/>
     <div xmlns="http://www.w3.org/1999/xhtml">H/O: artificial eye lens</div>   
   </text>
    <patient>
      <reference value="Patient/1291938"/>
    </patient>
    <code> 
      <coding>
        <system value="http://snomed.info/sct"/>
        <code value="309523001"/>
        <display value="H/O: artificial eye lens"/>
      </coding>
      <text value="H/O: artificial eye lens"/>
    </code>
   <clinicalStatus value="confirmed"/>
   <onsetDateTime value="2008-04-18"/>
   
  </Condition>
  
  </resource>
  <request>
    <method value="POST"/>
    <url value="Condition/10"/>
  </request>
</entry>
  <entry>
  <resource>
    
    
  <Condition>
  <id value="11"/>
    <text>
     <status value="generated"/>
     <div xmlns="http://www.w3.org/1999/xhtml">Abnormal weight loss</div>   
   </text>
    <patient>
      <reference value="Patient/1291938"/>
    </patient>
    <code> 
      <coding>
        <system value="http://snomed.info/sct"/>
        <code value="267024001"/>
        <display value="Abnormal weight loss"/>
      </coding>
      <text value="Abnormal weight loss"/>
    </code>
   <clinicalStatus value="confirmed"/>
   <onsetDateTime value="2008-11-19"/>
   
  </Condition>
  
  </resource>
  <request>
    <method value="POST"/>
    <url value="Condition/11"/>
  </request>
</entry>
  <entry>
  <resource>
    
    
  <Condition>
  <id value="12"/>
    <text>
     <status value="generated"/>
     <div xmlns="http://www.w3.org/1999/xhtml">Essential hypertension</div>   
   </text>
    <patient>
      <reference value="Patient/1291938"/>
    </patient>
    <code> 
      <coding>
        <system value="http://snomed.info/sct"/>
        <code value="38341003"/>
        <display value="Essential hypertension"/>
      </coding>
      <text value="Essential hypertension"/>
    </code>
   <clinicalStatus value="confirmed"/>
   <onsetDateTime value="2009-06-17"/>
   
  </Condition>
  
  </resource>
  <request>
    <method value="POST"/>
    <url value="Condition/12"/>
  </request>
</entry>
  <entry>
  <resource>
    
    
  <Condition>
  <id value="13"/>
    <text>
     <status value="generated"/>
     <div xmlns="http://www.w3.org/1999/xhtml">Hyperlipidemia</div>   
   </text>
    <patient>
      <reference value="Patient/1291938"/>
    </patient>
    <code> 
      <coding>
        <system value="http://snomed.info/sct"/>
        <code value="55822004"/>
        <display value="Hyperlipidemia"/>
      </coding>
      <text value="Hyperlipidemia"/>
    </code>
   <clinicalStatus value="confirmed"/>
   <onsetDateTime value="2009-06-17"/>
   
  </Condition>
  
  </resource>
  <request>
    <method value="POST"/>
    <url value="Condition/13"/>
  </request>
</entry>
  <entry>
  <resource>
    
    
  <Procedure>
  <id value="1"/>
   <text>
     <status value="generated"/>
     <div xmlns="http://www.w3.org/1999/xhtml">Alcohol rehabilitation</div>
   </text>
   <subject>
      <reference value="Patient/1291938"/>
   </subject>
   <code>
      <coding>
        <system value="http://snomed.info/sct"/>
        <code value="35637008"/>
        <display value="Alcohol rehabilitation"/>
      </coding>
      <text value="Alcohol rehabilitation"/>
   </code>
   <performedDateTime value="2002-05-23"/>
  </Procedure>
  
  </resource>
  <request>
    <method value="POST"/>
    <url value="Procedure/1"/>
  </request>
</entry>
  <entry>
  <resource>
    
    
  <Procedure>
  <id value="2"/>
   <text>
     <status value="generated"/>
     <div xmlns="http://www.w3.org/1999/xhtml">Smoking cessation assistance</div>
   </text>
   <subject>
      <reference value="Patient/1291938"/>
   </subject>
   <code>
      <coding>
        <system value="http://snomed.info/sct"/>
        <code value="384742004"/>
        <display value="Smoking cessation assistance"/>
      </coding>
      <text value="Smoking cessation assistance"/>
   </code>
   <performedDateTime value="2000-02-12"/>
  </Procedure>
  
  </resource>
  <request>
    <method value="POST"/>
    <url value="Procedure/2"/>
  </request>
</entry>
<entry>
  <resource>
    
    
  <Observation>
  <id value="47-smokingstatus"/>
    <text>
      <status value="generated"/>
      <div xmlns="http://www.w3.org/1999/xhtml">Tobacco smoking status: Never smoker</div>
    </text>
    <code>
      <coding>
        <system value="http://loinc.org"/>
        <code value="72166-2"/>
        <display value="Tobacco smoking status"/>
      </coding>
      <text value="Tobacco smoking status"/>
    </code>
    <valueCodeableConcept>
      <coding>
        <system value="http://snomed.info/sct"/>
        <code value="266919005"/>
        <display value="Never smoker"/>
      </coding>
      <text value="Never smoker"/>
    </valueCodeableConcept>
    <status value="final"/>
    <subject>
      <reference value="Patient/1291938"/>
    </subject>
  </Observation>
  
  </resource>
  <request>
    <method value="POST"/>
    <url value="Observation/47-smokingstatus"/>
  </request>
</entry>
  <entry>
  <resource>
    
    
    <List>
  <id value="29"/>
        <text>
            <status value="generated"/>
            <div xmlns="http://www.w3.org/1999/xhtml">No known allergies</div>
        </text>
        <code>
            <coding>
               <system value="http://loinc.org/"/>
               <code value="52473-6"/>
               <display value="Allergy"/>
            </coding>
            <text value="Allergy"/>
        </code>
        <subject>
          <reference value="Patient/1291938"/>
        </subject>
        <date value="2000"/>
        <mode value="snapshot"/>
        <emptyReason>
            <coding>
                <system value="http://hl7.org/fhir/list-empty-reason"/>
                <code value="nilknown"/>
                <display value="Nil Known"/>
            </coding>
            <text value="Nil Known"/>
        </emptyReason>
    </List>
  
  </resource>
  <request>
    <method value="POST"/>
    <url value="List/29"/>
  </request>
</entry>

</Bundle>
