<?xml version="1.0" encoding="UTF-8"?>
<Bundle xmlns="http://hl7.org/fhir">
    <type value="transaction"/>

  <entry>
  <resource>
    
    
  <Patient>
    <id value="ID1291938"/>
    <text>
      <status value="generated"/>
      <div xmlns="http://www.w3.org/1999/xhtml">
        <p>Carol Young</p>
      </div>
    </text>
    <identifier>
      <use value="usual"/>
      <type>
        <coding>
          <system value="http://hl7.org/fhir/v2/0203"/>
          <code value="MR"/>
          <display value="Medical record number"/>
        </coding>
      </type>
      <system value="http://hospital.smarthealthit.org"/>
      <value value="1291938"/>
    </identifier>
    <name>
      <use value="official"/>
      <family value="Young"/>
      <given value="Carol"/>
      <given value="T."/>
    </name>
    <telecom>
      <system value="phone"/>
      <value value="800-534-4473"/>
      <use value="home"/>
    </telecom>
    <telecom>
      <system value="phone"/>
      <value value="800-383-7276"/>
      <use value="mobile"/>
    </telecom>
    <telecom>
      <system value="email"/>
      <value value="carol.young@example.com"/>
    </telecom>
    <gender value="female" />
    <birthDate value="1932-02-26" />
    <address>
      <use value="home"/>
      <line value="57 Ridge Ave"/>
      <city value="Tulsa"/>
      <state value="OK"/>
      <postalCode value="74116"/>
      <country value="USA"/>
    </address>
    <active value="true"/>
  </Patient>
  
  </resource>
  <request>
    <method value="PUT"/>
    <url value="Patient/ID1291938"/>
  </request>
</entry>
  <entry>
  <resource>
    
    
    <Encounter>
  <id value="ID766"/>
      <text>
        <status value="generated"/>
        <div xmlns="http://www.w3.org/1999/xhtml">1997-05-17: ambulatory encounter</div>
      </text>
      <status value="finished"/>
      <class value="ambulatory"/>
      <patient>
        <reference value="Patient/ID1291938"/>
      </patient>
      <period>
       <start value="1997-05-17"/>
       <end value="1997-05-17"/>
      </period>
    </Encounter>
  
  </resource>
  <request>
    <method value="PUT"/>
    <url value="Encounter/ID766"/>
  </request>
</entry>
  <entry>
  <resource>
    
    
    <Encounter>
  <id value="ID767"/>
      <text>
        <status value="generated"/>
        <div xmlns="http://www.w3.org/1999/xhtml">1997-05-19: ambulatory encounter</div>
      </text>
      <status value="finished"/>
      <class value="ambulatory"/>
      <patient>
        <reference value="Patient/ID1291938"/>
      </patient>
      <period>
       <start value="1997-05-19"/>
       <end value="1997-05-19"/>
      </period>
    </Encounter>
  
  </resource>
  <request>
    <method value="PUT"/>
    <url value="Encounter/ID767"/>
  </request>
</entry>
  <entry>
  <resource>
    
    
    <Encounter>
  <id value="ID768"/>
      <text>
        <status value="generated"/>
        <div xmlns="http://www.w3.org/1999/xhtml">1997-06-18: ambulatory encounter</div>
      </text>
      <status value="finished"/>
      <class value="ambulatory"/>
      <patient>
        <reference value="Patient/ID1291938"/>
      </patient>
      <period>
       <start value="1997-06-18"/>
       <end value="1997-06-18"/>
      </period>
    </Encounter>
  
  </resource>
  <request>
    <method value="PUT"/>
    <url value="Encounter/ID768"/>
  </request>
</entry>
  <entry>
  <resource>
    
    
    <Encounter>
  <id value="ID769"/>
      <text>
        <status value="generated"/>
        <div xmlns="http://www.w3.org/1999/xhtml">1997-06-19: ambulatory encounter</div>
      </text>
      <status value="finished"/>
      <class value="ambulatory"/>
      <patient>
        <reference value="Patient/ID1291938"/>
      </patient>
      <period>
       <start value="1997-06-19"/>
       <end value="1997-06-19"/>
      </period>
    </Encounter>
  
  </resource>
  <request>
    <method value="PUT"/>
    <url value="Encounter/ID769"/>
  </request>
</entry>
  <entry>
  <resource>
    
    
    <Encounter>
  <id value="ID770"/>
      <text>
        <status value="generated"/>
        <div xmlns="http://www.w3.org/1999/xhtml">1997-06-20: ambulatory encounter</div>
      </text>
      <status value="finished"/>
      <class value="ambulatory"/>
      <patient>
        <reference value="Patient/ID1291938"/>
      </patient>
      <period>
       <start value="1997-06-20"/>
       <end value="1997-06-20"/>
      </period>
    </Encounter>
  
  </resource>
  <request>
    <method value="PUT"/>
    <url value="Encounter/ID770"/>
  </request>
</entry>
  <entry>
  <resource>
    
    
    <Encounter>
  <id value="ID771"/>
      <text>
        <status value="generated"/>
        <div xmlns="http://www.w3.org/1999/xhtml">1997-10-27: ambulatory encounter</div>
      </text>
      <status value="finished"/>
      <class value="ambulatory"/>
      <patient>
        <reference value="Patient/ID1291938"/>
      </patient>
      <period>
       <start value="1997-10-27"/>
       <end value="1997-10-27"/>
      </period>
    </Encounter>
  
  </resource>
  <request>
    <method value="PUT"/>
    <url value="Encounter/ID771"/>
  </request>
</entry>
  <entry>
  <resource>
    
    
    <Encounter>
  <id value="ID772"/>
      <text>
        <status value="generated"/>
        <div xmlns="http://www.w3.org/1999/xhtml">1997-10-28: ambulatory encounter</div>
      </text>
      <status value="finished"/>
      <class value="ambulatory"/>
      <patient>
        <reference value="Patient/ID1291938"/>
      </patient>
      <period>
       <start value="1997-10-28"/>
       <end value="1997-10-28"/>
      </period>
    </Encounter>
  
  </resource>
  <request>
    <method value="PUT"/>
    <url value="Encounter/ID772"/>
  </request>
</entry>
  <entry>
  <resource>
    
    
    <Encounter>
  <id value="ID773"/>
      <text>
        <status value="generated"/>
        <div xmlns="http://www.w3.org/1999/xhtml">1997-10-29: ambulatory encounter</div>
      </text>
      <status value="finished"/>
      <class value="ambulatory"/>
      <patient>
        <reference value="Patient/ID1291938"/>
      </patient>
      <period>
       <start value="1997-10-29"/>
       <end value="1997-10-29"/>
      </period>
    </Encounter>
  
  </resource>
  <request>
    <method value="PUT"/>
    <url value="Encounter/ID773"/>
  </request>
</entry>
  <entry>
  <resource>
    
    
    <Encounter>
  <id value="ID774"/>
      <text>
        <status value="generated"/>
        <div xmlns="http://www.w3.org/1999/xhtml">1999-05-27: ambulatory encounter</div>
      </text>
      <status value="finished"/>
      <class value="ambulatory"/>
      <patient>
        <reference value="Patient/ID1291938"/>
      </patient>
      <period>
       <start value="1999-05-27"/>
       <end value="1999-05-27"/>
      </period>
    </Encounter>
  
  </resource>
  <request>
    <method value="PUT"/>
    <url value="Encounter/ID774"/>
  </request>
</entry>
  <entry>
  <resource>
    
    
    <Encounter>
  <id value="ID775"/>
      <text>
        <status value="generated"/>
        <div xmlns="http://www.w3.org/1999/xhtml">1999-05-28: ambulatory encounter</div>
      </text>
      <status value="finished"/>
      <class value="ambulatory"/>
      <patient>
        <reference value="Patient/ID1291938"/>
      </patient>
      <period>
       <start value="1999-05-28"/>
       <end value="1999-05-28"/>
      </period>
    </Encounter>
  
  </resource>
  <request>
    <method value="PUT"/>
    <url value="Encounter/ID775"/>
  </request>
</entry>
  <entry>
  <resource>
    
    
    <Encounter>
  <id value="ID776"/>
      <text>
        <status value="generated"/>
        <div xmlns="http://www.w3.org/1999/xhtml">1999-06-01: ambulatory encounter</div>
      </text>
      <status value="finished"/>
      <class value="ambulatory"/>
      <patient>
        <reference value="Patient/ID1291938"/>
      </patient>
      <period>
       <start value="1999-06-01"/>
       <end value="1999-06-01"/>
      </period>
    </Encounter>
  
  </resource>
  <request>
    <method value="PUT"/>
    <url value="Encounter/ID776"/>
  </request>
</entry>
  <entry>
  <resource>
    
    
    <Encounter>
  <id value="ID777"/>
      <text>
        <status value="generated"/>
        <div xmlns="http://www.w3.org/1999/xhtml">1999-06-03: ambulatory encounter</div>
      </text>
      <status value="finished"/>
      <class value="ambulatory"/>
      <patient>
        <reference value="Patient/ID1291938"/>
      </patient>
      <period>
       <start value="1999-06-03"/>
       <end value="1999-06-03"/>
      </period>
    </Encounter>
  
  </resource>
  <request>
    <method value="PUT"/>
    <url value="Encounter/ID777"/>
  </request>
</entry>
  <entry>
  <resource>
    
    
    <Encounter>
  <id value="ID778"/>
      <text>
        <status value="generated"/>
        <div xmlns="http://www.w3.org/1999/xhtml">1999-06-07: ambulatory encounter</div>
      </text>
      <status value="finished"/>
      <class value="ambulatory"/>
      <patient>
        <reference value="Patient/ID1291938"/>
      </patient>
      <period>
       <start value="1999-06-07"/>
       <end value="1999-06-07"/>
      </period>
    </Encounter>
  
  </resource>
  <request>
    <method value="PUT"/>
    <url value="Encounter/ID778"/>
  </request>
</entry>
  <entry>
  <resource>
    
    
    <Encounter>
  <id value="ID779"/>
      <text>
        <status value="generated"/>
        <div xmlns="http://www.w3.org/1999/xhtml">1999-06-09: ambulatory encounter</div>
      </text>
      <status value="finished"/>
      <class value="ambulatory"/>
      <patient>
        <reference value="Patient/ID1291938"/>
      </patient>
      <period>
       <start value="1999-06-09"/>
       <end value="1999-06-09"/>
      </period>
    </Encounter>
  
  </resource>
  <request>
    <method value="PUT"/>
    <url value="Encounter/ID779"/>
  </request>
</entry>
  <entry>
  <resource>
    
    
    <Encounter>
  <id value="ID780"/>
      <text>
        <status value="generated"/>
        <div xmlns="http://www.w3.org/1999/xhtml">2003-04-09: ambulatory encounter</div>
      </text>
      <status value="finished"/>
      <class value="ambulatory"/>
      <patient>
        <reference value="Patient/ID1291938"/>
      </patient>
      <period>
       <start value="2003-04-09"/>
       <end value="2003-04-09"/>
      </period>
    </Encounter>
  
  </resource>
  <request>
    <method value="PUT"/>
    <url value="Encounter/ID780"/>
  </request>
</entry>
  <entry>
  <resource>
    
    
    <Encounter>
  <id value="ID781"/>
      <text>
        <status value="generated"/>
        <div xmlns="http://www.w3.org/1999/xhtml">2003-04-11: ambulatory encounter</div>
      </text>
      <status value="finished"/>
      <class value="ambulatory"/>
      <patient>
        <reference value="Patient/ID1291938"/>
      </patient>
      <period>
       <start value="2003-04-11"/>
       <end value="2003-04-11"/>
      </period>
    </Encounter>
  
  </resource>
  <request>
    <method value="PUT"/>
    <url value="Encounter/ID781"/>
  </request>
</entry>
  <entry>
  <resource>
    
    
    <Encounter>
  <id value="ID782"/>
      <text>
        <status value="generated"/>
        <div xmlns="http://www.w3.org/1999/xhtml">2003-04-14: ambulatory encounter</div>
      </text>
      <status value="finished"/>
      <class value="ambulatory"/>
      <patient>
        <reference value="Patient/ID1291938"/>
      </patient>
      <period>
       <start value="2003-04-14"/>
       <end value="2003-04-14"/>
      </period>
    </Encounter>
  
  </resource>
  <request>
    <method value="PUT"/>
    <url value="Encounter/ID782"/>
  </request>
</entry>
  <entry>
  <resource>
    
    
    <Encounter>
  <id value="ID783"/>
      <text>
        <status value="generated"/>
        <div xmlns="http://www.w3.org/1999/xhtml">2003-04-15: ambulatory encounter</div>
      </text>
      <status value="finished"/>
      <class value="ambulatory"/>
      <patient>
        <reference value="Patient/ID1291938"/>
      </patient>
      <period>
       <start value="2003-04-15"/>
       <end value="2003-04-15"/>
      </period>
    </Encounter>
  
  </resource>
  <request>
    <method value="PUT"/>
    <url value="Encounter/ID783"/>
  </request>
</entry>
  <entry>
  <resource>
    
    
    <Encounter>
  <id value="ID784"/>
      <text>
        <status value="generated"/>
        <div xmlns="http://www.w3.org/1999/xhtml">2006-03-14: ambulatory encounter</div>
      </text>
      <status value="finished"/>
      <class value="ambulatory"/>
      <patient>
        <reference value="Patient/ID1291938"/>
      </patient>
      <period>
       <start value="2006-03-14"/>
       <end value="2006-03-14"/>
      </period>
    </Encounter>
  
  </resource>
  <request>
    <method value="PUT"/>
    <url value="Encounter/ID784"/>
  </request>
</entry>
  <entry>
  <resource>
    
    
    <Encounter>
  <id value="ID785"/>
      <text>
        <status value="generated"/>
        <div xmlns="http://www.w3.org/1999/xhtml">2006-03-15: ambulatory encounter</div>
      </text>
      <status value="finished"/>
      <class value="ambulatory"/>
      <patient>
        <reference value="Patient/ID1291938"/>
      </patient>
      <period>
       <start value="2006-03-15"/>
       <end value="2006-03-15"/>
      </period>
    </Encounter>
  
  </resource>
  <request>
    <method value="PUT"/>
    <url value="Encounter/ID785"/>
  </request>
</entry>
  <entry>
  <resource>
    
    
    <Encounter>
  <id value="ID786"/>
      <text>
        <status value="generated"/>
        <div xmlns="http://www.w3.org/1999/xhtml">2006-03-16: ambulatory encounter</div>
      </text>
      <status value="finished"/>
      <class value="ambulatory"/>
      <patient>
        <reference value="Patient/ID1291938"/>
      </patient>
      <period>
       <start value="2006-03-16"/>
       <end value="2006-03-16"/>
      </period>
    </Encounter>
  
  </resource>
  <request>
    <method value="PUT"/>
    <url value="Encounter/ID786"/>
  </request>
</entry>
  <entry>
  <resource>
    
    
  <Observation>
    <id value="ID766-bp"/>
    <text>
      <status value="generated"/>
      <div xmlns="http://www.w3.org/1999/xhtml">1997-05-17: Blood pressure 133/91 mmHg</div>
    </text>
    <code>
      <coding>
        <system value="http://loinc.org"/>
        <code value="55284-4"/>
        <display value="Blood pressure systolic and diastolic"/>
      </coding>
    </code>
    <effectiveDateTime value="1997-05-17"/>
    <status value="final"/>
    <reliability value="ok"/>
    <subject>
      <reference value="Patient/ID1291938"/>
    </subject>
    <related>
      <type value="has-component"/>
      <target>
        <reference value="Observation/ID766-systolic"/>
      </target>
    </related>
    <related>
      <type value="has-component"/>
      <target>
        <reference value="Observation/ID766-diastolic"/>
      </target>
    </related>
    <encounter>
      <reference value="Encounter/ID766"/>
    </encounter>
    

  </Observation>
  
  </resource>
  <request>
    <method value="PUT"/>
    <url value="Observation/ID766-bp"/>
  </request>
</entry>
<entry>
  <resource>
    
    
  <Observation>
  <id value="ID766-systolic"/>
    <text>
      <status value="generated"/>
      <div xmlns="http://www.w3.org/1999/xhtml">1997-05-17: Systolic blood pressure = 133 mm[Hg]</div>
    </text>
    <code>
      <coding>
        <system value="http://loinc.org"/>
        <code value="8480-6"/>
        <display value="Systolic blood pressure"/>
      </coding>
    </code>
    <valueQuantity>
      <value value="133.0"/>
      <unit value="mm[Hg]"/>
      <system value="http://unitsofmeasure.org" />
      <code value="mm[Hg]"/>
    </valueQuantity>
    
    <effectiveDateTime value="1997-05-17"/>
    <status value="final"/>
    <reliability value="ok"/>
    <subject>
      <reference value="Patient/ID1291938"/>
    </subject>
  </Observation>
  
  </resource>
  <request>
    <method value="PUT"/>
    <url value="Observation/ID766-systolic"/>
  </request>
</entry>
<entry>
  <resource>
    
    
  <Observation>
  <id value="ID766-diastolic"/>
    <text>
      <status value="generated"/>
      <div xmlns="http://www.w3.org/1999/xhtml">1997-05-17: Diastolic blood pressure = 91 mm[Hg]</div>
    </text>
    <code>
      <coding>
        <system value="http://loinc.org"/>
        <code value="8462-4"/>
        <display value="Diastolic blood pressure"/>
      </coding>
    </code>
    <valueQuantity>
      <value value="91.0"/>
      <unit value="mm[Hg]"/>
      <system value="http://unitsofmeasure.org" />
      <code value="mm[Hg]"/>
    </valueQuantity>
    
    <effectiveDateTime value="1997-05-17"/>
    <status value="final"/>
    <reliability value="ok"/>
    <subject>
      <reference value="Patient/ID1291938"/>
    </subject>
  </Observation>
  
  </resource>
  <request>
    <method value="PUT"/>
    <url value="Observation/ID766-diastolic"/>
  </request>
</entry>
  <entry>
  <resource>
    
    
  <Observation>
    <id value="ID767-bp"/>
    <text>
      <status value="generated"/>
      <div xmlns="http://www.w3.org/1999/xhtml">1997-05-19: Blood pressure 135/77 mmHg</div>
    </text>
    <code>
      <coding>
        <system value="http://loinc.org"/>
        <code value="55284-4"/>
        <display value="Blood pressure systolic and diastolic"/>
      </coding>
    </code>
    <effectiveDateTime value="1997-05-19"/>
    <status value="final"/>
    <reliability value="ok"/>
    <subject>
      <reference value="Patient/ID1291938"/>
    </subject>
    <related>
      <type value="has-component"/>
      <target>
        <reference value="Observation/ID767-systolic"/>
      </target>
    </related>
    <related>
      <type value="has-component"/>
      <target>
        <reference value="Observation/ID767-diastolic"/>
      </target>
    </related>
    <encounter>
      <reference value="Encounter/ID767"/>
    </encounter>
    

  </Observation>
  
  </resource>
  <request>
    <method value="PUT"/>
    <url value="Observation/ID767-bp"/>
  </request>
</entry>
<entry>
  <resource>
    
    
  <Observation>
  <id value="ID767-systolic"/>
    <text>
      <status value="generated"/>
      <div xmlns="http://www.w3.org/1999/xhtml">1997-05-19: Systolic blood pressure = 135 mm[Hg]</div>
    </text>
    <code>
      <coding>
        <system value="http://loinc.org"/>
        <code value="8480-6"/>
        <display value="Systolic blood pressure"/>
      </coding>
    </code>
    <valueQuantity>
      <value value="135.0"/>
      <unit value="mm[Hg]"/>
      <system value="http://unitsofmeasure.org" />
      <code value="mm[Hg]"/>
    </valueQuantity>
    
    <effectiveDateTime value="1997-05-19"/>
    <status value="final"/>
    <reliability value="ok"/>
    <subject>
      <reference value="Patient/ID1291938"/>
    </subject>
  </Observation>
  
  </resource>
  <request>
    <method value="PUT"/>
    <url value="Observation/ID767-systolic"/>
  </request>
</entry>
<entry>
  <resource>
    
    
  <Observation>
  <id value="ID767-diastolic"/>
    <text>
      <status value="generated"/>
      <div xmlns="http://www.w3.org/1999/xhtml">1997-05-19: Diastolic blood pressure = 77 mm[Hg]</div>
    </text>
    <code>
      <coding>
        <system value="http://loinc.org"/>
        <code value="8462-4"/>
        <display value="Diastolic blood pressure"/>
      </coding>
    </code>
    <valueQuantity>
      <value value="77.0"/>
      <unit value="mm[Hg]"/>
      <system value="http://unitsofmeasure.org" />
      <code value="mm[Hg]"/>
    </valueQuantity>
    
    <effectiveDateTime value="1997-05-19"/>
    <status value="final"/>
    <reliability value="ok"/>
    <subject>
      <reference value="Patient/ID1291938"/>
    </subject>
  </Observation>
  
  </resource>
  <request>
    <method value="PUT"/>
    <url value="Observation/ID767-diastolic"/>
  </request>
</entry>
  <entry>
  <resource>
    
    
  <Observation>
    <id value="ID768-bp"/>
    <text>
      <status value="generated"/>
      <div xmlns="http://www.w3.org/1999/xhtml">1997-06-18: Blood pressure 135/77 mmHg</div>
    </text>
    <code>
      <coding>
        <system value="http://loinc.org"/>
        <code value="55284-4"/>
        <display value="Blood pressure systolic and diastolic"/>
      </coding>
    </code>
    <effectiveDateTime value="1997-06-18"/>
    <status value="final"/>
    <reliability value="ok"/>
    <subject>
      <reference value="Patient/ID1291938"/>
    </subject>
    <related>
      <type value="has-component"/>
      <target>
        <reference value="Observation/ID768-systolic"/>
      </target>
    </related>
    <related>
      <type value="has-component"/>
      <target>
        <reference value="Observation/ID768-diastolic"/>
      </target>
    </related>
    <encounter>
      <reference value="Encounter/ID768"/>
    </encounter>
    

  </Observation>
  
  </resource>
  <request>
    <method value="PUT"/>
    <url value="Observation/ID768-bp"/>
  </request>
</entry>
<entry>
  <resource>
    
    
  <Observation>
  <id value="ID768-systolic"/>
    <text>
      <status value="generated"/>
      <div xmlns="http://www.w3.org/1999/xhtml">1997-06-18: Systolic blood pressure = 135 mm[Hg]</div>
    </text>
    <code>
      <coding>
        <system value="http://loinc.org"/>
        <code value="8480-6"/>
        <display value="Systolic blood pressure"/>
      </coding>
    </code>
    <valueQuantity>
      <value value="135.0"/>
      <unit value="mm[Hg]"/>
      <system value="http://unitsofmeasure.org" />
      <code value="mm[Hg]"/>
    </valueQuantity>
    
    <effectiveDateTime value="1997-06-18"/>
    <status value="final"/>
    <reliability value="ok"/>
    <subject>
      <reference value="Patient/ID1291938"/>
    </subject>
  </Observation>
  
  </resource>
  <request>
    <method value="PUT"/>
    <url value="Observation/ID768-systolic"/>
  </request>
</entry>
<entry>
  <resource>
    
    
  <Observation>
  <id value="ID768-diastolic"/>
    <text>
      <status value="generated"/>
      <div xmlns="http://www.w3.org/1999/xhtml">1997-06-18: Diastolic blood pressure = 77 mm[Hg]</div>
    </text>
    <code>
      <coding>
        <system value="http://loinc.org"/>
        <code value="8462-4"/>
        <display value="Diastolic blood pressure"/>
      </coding>
    </code>
    <valueQuantity>
      <value value="77.0"/>
      <unit value="mm[Hg]"/>
      <system value="http://unitsofmeasure.org" />
      <code value="mm[Hg]"/>
    </valueQuantity>
    
    <effectiveDateTime value="1997-06-18"/>
    <status value="final"/>
    <reliability value="ok"/>
    <subject>
      <reference value="Patient/ID1291938"/>
    </subject>
  </Observation>
  
  </resource>
  <request>
    <method value="PUT"/>
    <url value="Observation/ID768-diastolic"/>
  </request>
</entry>
  <entry>
  <resource>
    
    
  <Observation>
    <id value="ID769-bp"/>
    <text>
      <status value="generated"/>
      <div xmlns="http://www.w3.org/1999/xhtml">1997-06-19: Blood pressure 135/77 mmHg</div>
    </text>
    <code>
      <coding>
        <system value="http://loinc.org"/>
        <code value="55284-4"/>
        <display value="Blood pressure systolic and diastolic"/>
      </coding>
    </code>
    <effectiveDateTime value="1997-06-19"/>
    <status value="final"/>
    <reliability value="ok"/>
    <subject>
      <reference value="Patient/ID1291938"/>
    </subject>
    <related>
      <type value="has-component"/>
      <target>
        <reference value="Observation/ID769-systolic"/>
      </target>
    </related>
    <related>
      <type value="has-component"/>
      <target>
        <reference value="Observation/ID769-diastolic"/>
      </target>
    </related>
    <encounter>
      <reference value="Encounter/ID769"/>
    </encounter>
    

  </Observation>
  
  </resource>
  <request>
    <method value="PUT"/>
    <url value="Observation/ID769-bp"/>
  </request>
</entry>
<entry>
  <resource>
    
    
  <Observation>
  <id value="ID769-systolic"/>
    <text>
      <status value="generated"/>
      <div xmlns="http://www.w3.org/1999/xhtml">1997-06-19: Systolic blood pressure = 135 mm[Hg]</div>
    </text>
    <code>
      <coding>
        <system value="http://loinc.org"/>
        <code value="8480-6"/>
        <display value="Systolic blood pressure"/>
      </coding>
    </code>
    <valueQuantity>
      <value value="135.0"/>
      <unit value="mm[Hg]"/>
      <system value="http://unitsofmeasure.org" />
      <code value="mm[Hg]"/>
    </valueQuantity>
    
    <effectiveDateTime value="1997-06-19"/>
    <status value="final"/>
    <reliability value="ok"/>
    <subject>
      <reference value="Patient/ID1291938"/>
    </subject>
  </Observation>
  
  </resource>
  <request>
    <method value="PUT"/>
    <url value="Observation/ID769-systolic"/>
  </request>
</entry>
<entry>
  <resource>
    
    
  <Observation>
  <id value="ID769-diastolic"/>
    <text>
      <status value="generated"/>
      <div xmlns="http://www.w3.org/1999/xhtml">1997-06-19: Diastolic blood pressure = 77 mm[Hg]</div>
    </text>
    <code>
      <coding>
        <system value="http://loinc.org"/>
        <code value="8462-4"/>
        <display value="Diastolic blood pressure"/>
      </coding>
    </code>
    <valueQuantity>
      <value value="77.0"/>
      <unit value="mm[Hg]"/>
      <system value="http://unitsofmeasure.org" />
      <code value="mm[Hg]"/>
    </valueQuantity>
    
    <effectiveDateTime value="1997-06-19"/>
    <status value="final"/>
    <reliability value="ok"/>
    <subject>
      <reference value="Patient/ID1291938"/>
    </subject>
  </Observation>
  
  </resource>
  <request>
    <method value="PUT"/>
    <url value="Observation/ID769-diastolic"/>
  </request>
</entry>
  <entry>
  <resource>
    
    
  <Observation>
    <id value="ID770-bp"/>
    <text>
      <status value="generated"/>
      <div xmlns="http://www.w3.org/1999/xhtml">1997-06-20: Blood pressure 131/75 mmHg</div>
    </text>
    <code>
      <coding>
        <system value="http://loinc.org"/>
        <code value="55284-4"/>
        <display value="Blood pressure systolic and diastolic"/>
      </coding>
    </code>
    <effectiveDateTime value="1997-06-20"/>
    <status value="final"/>
    <reliability value="ok"/>
    <subject>
      <reference value="Patient/ID1291938"/>
    </subject>
    <related>
      <type value="has-component"/>
      <target>
        <reference value="Observation/ID770-systolic"/>
      </target>
    </related>
    <related>
      <type value="has-component"/>
      <target>
        <reference value="Observation/ID770-diastolic"/>
      </target>
    </related>
    <encounter>
      <reference value="Encounter/ID770"/>
    </encounter>
    

  </Observation>
  
  </resource>
  <request>
    <method value="PUT"/>
    <url value="Observation/ID770-bp"/>
  </request>
</entry>
<entry>
  <resource>
    
    
  <Observation>
  <id value="ID770-systolic"/>
    <text>
      <status value="generated"/>
      <div xmlns="http://www.w3.org/1999/xhtml">1997-06-20: Systolic blood pressure = 131 mm[Hg]</div>
    </text>
    <code>
      <coding>
        <system value="http://loinc.org"/>
        <code value="8480-6"/>
        <display value="Systolic blood pressure"/>
      </coding>
    </code>
    <valueQuantity>
      <value value="131.0"/>
      <unit value="mm[Hg]"/>
      <system value="http://unitsofmeasure.org" />
      <code value="mm[Hg]"/>
    </valueQuantity>
    
    <effectiveDateTime value="1997-06-20"/>
    <status value="final"/>
    <reliability value="ok"/>
    <subject>
      <reference value="Patient/ID1291938"/>
    </subject>
  </Observation>
  
  </resource>
  <request>
    <method value="PUT"/>
    <url value="Observation/ID770-systolic"/>
  </request>
</entry>
<entry>
  <resource>
    
    
  <Observation>
  <id value="ID770-diastolic"/>
    <text>
      <status value="generated"/>
      <div xmlns="http://www.w3.org/1999/xhtml">1997-06-20: Diastolic blood pressure = 75 mm[Hg]</div>
    </text>
    <code>
      <coding>
        <system value="http://loinc.org"/>
        <code value="8462-4"/>
        <display value="Diastolic blood pressure"/>
      </coding>
    </code>
    <valueQuantity>
      <value value="75.0"/>
      <unit value="mm[Hg]"/>
      <system value="http://unitsofmeasure.org" />
      <code value="mm[Hg]"/>
    </valueQuantity>
    
    <effectiveDateTime value="1997-06-20"/>
    <status value="final"/>
    <reliability value="ok"/>
    <subject>
      <reference value="Patient/ID1291938"/>
    </subject>
  </Observation>
  
  </resource>
  <request>
    <method value="PUT"/>
    <url value="Observation/ID770-diastolic"/>
  </request>
</entry>
  <entry>
  <resource>
    
    
  <Observation>
    <id value="ID771-bp"/>
    <text>
      <status value="generated"/>
      <div xmlns="http://www.w3.org/1999/xhtml">1997-10-27: Blood pressure 133/76 mmHg</div>
    </text>
    <code>
      <coding>
        <system value="http://loinc.org"/>
        <code value="55284-4"/>
        <display value="Blood pressure systolic and diastolic"/>
      </coding>
    </code>
    <effectiveDateTime value="1997-10-27"/>
    <status value="final"/>
    <reliability value="ok"/>
    <subject>
      <reference value="Patient/ID1291938"/>
    </subject>
    <related>
      <type value="has-component"/>
      <target>
        <reference value="Observation/ID771-systolic"/>
      </target>
    </related>
    <related>
      <type value="has-component"/>
      <target>
        <reference value="Observation/ID771-diastolic"/>
      </target>
    </related>
    <encounter>
      <reference value="Encounter/ID771"/>
    </encounter>
    

  </Observation>
  
  </resource>
  <request>
    <method value="PUT"/>
    <url value="Observation/ID771-bp"/>
  </request>
</entry>
<entry>
  <resource>
    
    
  <Observation>
  <id value="ID771-systolic"/>
    <text>
      <status value="generated"/>
      <div xmlns="http://www.w3.org/1999/xhtml">1997-10-27: Systolic blood pressure = 133 mm[Hg]</div>
    </text>
    <code>
      <coding>
        <system value="http://loinc.org"/>
        <code value="8480-6"/>
        <display value="Systolic blood pressure"/>
      </coding>
    </code>
    <valueQuantity>
      <value value="133.0"/>
      <unit value="mm[Hg]"/>
      <system value="http://unitsofmeasure.org" />
      <code value="mm[Hg]"/>
    </valueQuantity>
    
    <effectiveDateTime value="1997-10-27"/>
    <status value="final"/>
    <reliability value="ok"/>
    <subject>
      <reference value="Patient/ID1291938"/>
    </subject>
  </Observation>
  
  </resource>
  <request>
    <method value="PUT"/>
    <url value="Observation/ID771-systolic"/>
  </request>
</entry>
<entry>
  <resource>
    
    
  <Observation>
  <id value="ID771-diastolic"/>
    <text>
      <status value="generated"/>
      <div xmlns="http://www.w3.org/1999/xhtml">1997-10-27: Diastolic blood pressure = 76 mm[Hg]</div>
    </text>
    <code>
      <coding>
        <system value="http://loinc.org"/>
        <code value="8462-4"/>
        <display value="Diastolic blood pressure"/>
      </coding>
    </code>
    <valueQuantity>
      <value value="76.0"/>
      <unit value="mm[Hg]"/>
      <system value="http://unitsofmeasure.org" />
      <code value="mm[Hg]"/>
    </valueQuantity>
    
    <effectiveDateTime value="1997-10-27"/>
    <status value="final"/>
    <reliability value="ok"/>
    <subject>
      <reference value="Patient/ID1291938"/>
    </subject>
  </Observation>
  
  </resource>
  <request>
    <method value="PUT"/>
    <url value="Observation/ID771-diastolic"/>
  </request>
</entry>
  <entry>
  <resource>
    
    
  <Observation>
    <id value="ID772-bp"/>
    <text>
      <status value="generated"/>
      <div xmlns="http://www.w3.org/1999/xhtml">1997-10-28: Blood pressure 133/76 mmHg</div>
    </text>
    <code>
      <coding>
        <system value="http://loinc.org"/>
        <code value="55284-4"/>
        <display value="Blood pressure systolic and diastolic"/>
      </coding>
    </code>
    <effectiveDateTime value="1997-10-28"/>
    <status value="final"/>
    <reliability value="ok"/>
    <subject>
      <reference value="Patient/ID1291938"/>
    </subject>
    <related>
      <type value="has-component"/>
      <target>
        <reference value="Observation/ID772-systolic"/>
      </target>
    </related>
    <related>
      <type value="has-component"/>
      <target>
        <reference value="Observation/ID772-diastolic"/>
      </target>
    </related>
    <encounter>
      <reference value="Encounter/ID772"/>
    </encounter>
    

  </Observation>
  
  </resource>
  <request>
    <method value="PUT"/>
    <url value="Observation/ID772-bp"/>
  </request>
</entry>
<entry>
  <resource>
    
    
  <Observation>
  <id value="ID772-systolic"/>
    <text>
      <status value="generated"/>
      <div xmlns="http://www.w3.org/1999/xhtml">1997-10-28: Systolic blood pressure = 133 mm[Hg]</div>
    </text>
    <code>
      <coding>
        <system value="http://loinc.org"/>
        <code value="8480-6"/>
        <display value="Systolic blood pressure"/>
      </coding>
    </code>
    <valueQuantity>
      <value value="133.0"/>
      <unit value="mm[Hg]"/>
      <system value="http://unitsofmeasure.org" />
      <code value="mm[Hg]"/>
    </valueQuantity>
    
    <effectiveDateTime value="1997-10-28"/>
    <status value="final"/>
    <reliability value="ok"/>
    <subject>
      <reference value="Patient/ID1291938"/>
    </subject>
  </Observation>
  
  </resource>
  <request>
    <method value="PUT"/>
    <url value="Observation/ID772-systolic"/>
  </request>
</entry>
<entry>
  <resource>
    
    
  <Observation>
  <id value="ID772-diastolic"/>
    <text>
      <status value="generated"/>
      <div xmlns="http://www.w3.org/1999/xhtml">1997-10-28: Diastolic blood pressure = 76 mm[Hg]</div>
    </text>
    <code>
      <coding>
        <system value="http://loinc.org"/>
        <code value="8462-4"/>
        <display value="Diastolic blood pressure"/>
      </coding>
    </code>
    <valueQuantity>
      <value value="76.0"/>
      <unit value="mm[Hg]"/>
      <system value="http://unitsofmeasure.org" />
      <code value="mm[Hg]"/>
    </valueQuantity>
    
    <effectiveDateTime value="1997-10-28"/>
    <status value="final"/>
    <reliability value="ok"/>
    <subject>
      <reference value="Patient/ID1291938"/>
    </subject>
  </Observation>
  
  </resource>
  <request>
    <method value="PUT"/>
    <url value="Observation/ID772-diastolic"/>
  </request>
</entry>
  <entry>
  <resource>
    
    
  <Observation>
    <id value="ID773-bp"/>
    <text>
      <status value="generated"/>
      <div xmlns="http://www.w3.org/1999/xhtml">1997-10-29: Blood pressure 133/76 mmHg</div>
    </text>
    <code>
      <coding>
        <system value="http://loinc.org"/>
        <code value="55284-4"/>
        <display value="Blood pressure systolic and diastolic"/>
      </coding>
    </code>
    <effectiveDateTime value="1997-10-29"/>
    <status value="final"/>
    <reliability value="ok"/>
    <subject>
      <reference value="Patient/ID1291938"/>
    </subject>
    <related>
      <type value="has-component"/>
      <target>
        <reference value="Observation/ID773-systolic"/>
      </target>
    </related>
    <related>
      <type value="has-component"/>
      <target>
        <reference value="Observation/ID773-diastolic"/>
      </target>
    </related>
    <encounter>
      <reference value="Encounter/ID773"/>
    </encounter>
    

  </Observation>
  
  </resource>
  <request>
    <method value="PUT"/>
    <url value="Observation/ID773-bp"/>
  </request>
</entry>
<entry>
  <resource>
    
    
  <Observation>
  <id value="ID773-systolic"/>
    <text>
      <status value="generated"/>
      <div xmlns="http://www.w3.org/1999/xhtml">1997-10-29: Systolic blood pressure = 133 mm[Hg]</div>
    </text>
    <code>
      <coding>
        <system value="http://loinc.org"/>
        <code value="8480-6"/>
        <display value="Systolic blood pressure"/>
      </coding>
    </code>
    <valueQuantity>
      <value value="133.0"/>
      <unit value="mm[Hg]"/>
      <system value="http://unitsofmeasure.org" />
      <code value="mm[Hg]"/>
    </valueQuantity>
    
    <effectiveDateTime value="1997-10-29"/>
    <status value="final"/>
    <reliability value="ok"/>
    <subject>
      <reference value="Patient/ID1291938"/>
    </subject>
  </Observation>
  
  </resource>
  <request>
    <method value="PUT"/>
    <url value="Observation/ID773-systolic"/>
  </request>
</entry>
<entry>
  <resource>
    
    
  <Observation>
  <id value="ID773-diastolic"/>
    <text>
      <status value="generated"/>
      <div xmlns="http://www.w3.org/1999/xhtml">1997-10-29: Diastolic blood pressure = 76 mm[Hg]</div>
    </text>
    <code>
      <coding>
        <system value="http://loinc.org"/>
        <code value="8462-4"/>
        <display value="Diastolic blood pressure"/>
      </coding>
    </code>
    <valueQuantity>
      <value value="76.0"/>
      <unit value="mm[Hg]"/>
      <system value="http://unitsofmeasure.org" />
      <code value="mm[Hg]"/>
    </valueQuantity>
    
    <effectiveDateTime value="1997-10-29"/>
    <status value="final"/>
    <reliability value="ok"/>
    <subject>
      <reference value="Patient/ID1291938"/>
    </subject>
  </Observation>
  
  </resource>
  <request>
    <method value="PUT"/>
    <url value="Observation/ID773-diastolic"/>
  </request>
</entry>
  <entry>
  <resource>
    
    
  <Observation>
    <id value="ID774-bp"/>
    <text>
      <status value="generated"/>
      <div xmlns="http://www.w3.org/1999/xhtml">1999-05-27: Blood pressure 133/75 mmHg</div>
    </text>
    <code>
      <coding>
        <system value="http://loinc.org"/>
        <code value="55284-4"/>
        <display value="Blood pressure systolic and diastolic"/>
      </coding>
    </code>
    <effectiveDateTime value="1999-05-27"/>
    <status value="final"/>
    <reliability value="ok"/>
    <subject>
      <reference value="Patient/ID1291938"/>
    </subject>
    <related>
      <type value="has-component"/>
      <target>
        <reference value="Observation/ID774-systolic"/>
      </target>
    </related>
    <related>
      <type value="has-component"/>
      <target>
        <reference value="Observation/ID774-diastolic"/>
      </target>
    </related>
    <encounter>
      <reference value="Encounter/ID774"/>
    </encounter>
    

  </Observation>
  
  </resource>
  <request>
    <method value="PUT"/>
    <url value="Observation/ID774-bp"/>
  </request>
</entry>
<entry>
  <resource>
    
    
  <Observation>
  <id value="ID774-systolic"/>
    <text>
      <status value="generated"/>
      <div xmlns="http://www.w3.org/1999/xhtml">1999-05-27: Systolic blood pressure = 133 mm[Hg]</div>
    </text>
    <code>
      <coding>
        <system value="http://loinc.org"/>
        <code value="8480-6"/>
        <display value="Systolic blood pressure"/>
      </coding>
    </code>
    <valueQuantity>
      <value value="133.0"/>
      <unit value="mm[Hg]"/>
      <system value="http://unitsofmeasure.org" />
      <code value="mm[Hg]"/>
    </valueQuantity>
    
    <effectiveDateTime value="1999-05-27"/>
    <status value="final"/>
    <reliability value="ok"/>
    <subject>
      <reference value="Patient/ID1291938"/>
    </subject>
  </Observation>
  
  </resource>
  <request>
    <method value="PUT"/>
    <url value="Observation/ID774-systolic"/>
  </request>
</entry>
<entry>
  <resource>
    
    
  <Observation>
  <id value="ID774-diastolic"/>
    <text>
      <status value="generated"/>
      <div xmlns="http://www.w3.org/1999/xhtml">1999-05-27: Diastolic blood pressure = 75 mm[Hg]</div>
    </text>
    <code>
      <coding>
        <system value="http://loinc.org"/>
        <code value="8462-4"/>
        <display value="Diastolic blood pressure"/>
      </coding>
    </code>
    <valueQuantity>
      <value value="75.0"/>
      <unit value="mm[Hg]"/>
      <system value="http://unitsofmeasure.org" />
      <code value="mm[Hg]"/>
    </valueQuantity>
    
    <effectiveDateTime value="1999-05-27"/>
    <status value="final"/>
    <reliability value="ok"/>
    <subject>
      <reference value="Patient/ID1291938"/>
    </subject>
  </Observation>
  
  </resource>
  <request>
    <method value="PUT"/>
    <url value="Observation/ID774-diastolic"/>
  </request>
</entry>
  <entry>
  <resource>
    
    
  <Observation>
    <id value="ID775-bp"/>
    <text>
      <status value="generated"/>
      <div xmlns="http://www.w3.org/1999/xhtml">1999-05-28: Blood pressure 135/76 mmHg</div>
    </text>
    <code>
      <coding>
        <system value="http://loinc.org"/>
        <code value="55284-4"/>
        <display value="Blood pressure systolic and diastolic"/>
      </coding>
    </code>
    <effectiveDateTime value="1999-05-28"/>
    <status value="final"/>
    <reliability value="ok"/>
    <subject>
      <reference value="Patient/ID1291938"/>
    </subject>
    <related>
      <type value="has-component"/>
      <target>
        <reference value="Observation/ID775-systolic"/>
      </target>
    </related>
    <related>
      <type value="has-component"/>
      <target>
        <reference value="Observation/ID775-diastolic"/>
      </target>
    </related>
    <encounter>
      <reference value="Encounter/ID775"/>
    </encounter>
    

  </Observation>
  
  </resource>
  <request>
    <method value="PUT"/>
    <url value="Observation/ID775-bp"/>
  </request>
</entry>
<entry>
  <resource>
    
    
  <Observation>
  <id value="ID775-systolic"/>
    <text>
      <status value="generated"/>
      <div xmlns="http://www.w3.org/1999/xhtml">1999-05-28: Systolic blood pressure = 135 mm[Hg]</div>
    </text>
    <code>
      <coding>
        <system value="http://loinc.org"/>
        <code value="8480-6"/>
        <display value="Systolic blood pressure"/>
      </coding>
    </code>
    <valueQuantity>
      <value value="135.0"/>
      <unit value="mm[Hg]"/>
      <system value="http://unitsofmeasure.org" />
      <code value="mm[Hg]"/>
    </valueQuantity>
    
    <effectiveDateTime value="1999-05-28"/>
    <status value="final"/>
    <reliability value="ok"/>
    <subject>
      <reference value="Patient/ID1291938"/>
    </subject>
  </Observation>
  
  </resource>
  <request>
    <method value="PUT"/>
    <url value="Observation/ID775-systolic"/>
  </request>
</entry>
<entry>
  <resource>
    
    
  <Observation>
  <id value="ID775-diastolic"/>
    <text>
      <status value="generated"/>
      <div xmlns="http://www.w3.org/1999/xhtml">1999-05-28: Diastolic blood pressure = 76 mm[Hg]</div>
    </text>
    <code>
      <coding>
        <system value="http://loinc.org"/>
        <code value="8462-4"/>
        <display value="Diastolic blood pressure"/>
      </coding>
    </code>
    <valueQuantity>
      <value value="76.0"/>
      <unit value="mm[Hg]"/>
      <system value="http://unitsofmeasure.org" />
      <code value="mm[Hg]"/>
    </valueQuantity>
    
    <effectiveDateTime value="1999-05-28"/>
    <status value="final"/>
    <reliability value="ok"/>
    <subject>
      <reference value="Patient/ID1291938"/>
    </subject>
  </Observation>
  
  </resource>
  <request>
    <method value="PUT"/>
    <url value="Observation/ID775-diastolic"/>
  </request>
</entry>
  <entry>
  <resource>
    
    
  <Observation>
    <id value="ID776-bp"/>
    <text>
      <status value="generated"/>
      <div xmlns="http://www.w3.org/1999/xhtml">1999-06-01: Blood pressure 135/76 mmHg</div>
    </text>
    <code>
      <coding>
        <system value="http://loinc.org"/>
        <code value="55284-4"/>
        <display value="Blood pressure systolic and diastolic"/>
      </coding>
    </code>
    <effectiveDateTime value="1999-06-01"/>
    <status value="final"/>
    <reliability value="ok"/>
    <subject>
      <reference value="Patient/ID1291938"/>
    </subject>
    <related>
      <type value="has-component"/>
      <target>
        <reference value="Observation/ID776-systolic"/>
      </target>
    </related>
    <related>
      <type value="has-component"/>
      <target>
        <reference value="Observation/ID776-diastolic"/>
      </target>
    </related>
    <encounter>
      <reference value="Encounter/ID776"/>
    </encounter>
    

  </Observation>
  
  </resource>
  <request>
    <method value="PUT"/>
    <url value="Observation/ID776-bp"/>
  </request>
</entry>
<entry>
  <resource>
    
    
  <Observation>
  <id value="ID776-systolic"/>
    <text>
      <status value="generated"/>
      <div xmlns="http://www.w3.org/1999/xhtml">1999-06-01: Systolic blood pressure = 135 mm[Hg]</div>
    </text>
    <code>
      <coding>
        <system value="http://loinc.org"/>
        <code value="8480-6"/>
        <display value="Systolic blood pressure"/>
      </coding>
    </code>
    <valueQuantity>
      <value value="135.0"/>
      <unit value="mm[Hg]"/>
      <system value="http://unitsofmeasure.org" />
      <code value="mm[Hg]"/>
    </valueQuantity>
    
    <effectiveDateTime value="1999-06-01"/>
    <status value="final"/>
    <reliability value="ok"/>
    <subject>
      <reference value="Patient/ID1291938"/>
    </subject>
  </Observation>
  
  </resource>
  <request>
    <method value="PUT"/>
    <url value="Observation/ID776-systolic"/>
  </request>
</entry>
<entry>
  <resource>
    
    
  <Observation>
  <id value="ID776-diastolic"/>
    <text>
      <status value="generated"/>
      <div xmlns="http://www.w3.org/1999/xhtml">1999-06-01: Diastolic blood pressure = 76 mm[Hg]</div>
    </text>
    <code>
      <coding>
        <system value="http://loinc.org"/>
        <code value="8462-4"/>
        <display value="Diastolic blood pressure"/>
      </coding>
    </code>
    <valueQuantity>
      <value value="76.0"/>
      <unit value="mm[Hg]"/>
      <system value="http://unitsofmeasure.org" />
      <code value="mm[Hg]"/>
    </valueQuantity>
    
    <effectiveDateTime value="1999-06-01"/>
    <status value="final"/>
    <reliability value="ok"/>
    <subject>
      <reference value="Patient/ID1291938"/>
    </subject>
  </Observation>
  
  </resource>
  <request>
    <method value="PUT"/>
    <url value="Observation/ID776-diastolic"/>
  </request>
</entry>
  <entry>
  <resource>
    
    
  <Observation>
    <id value="ID777-bp"/>
    <text>
      <status value="generated"/>
      <div xmlns="http://www.w3.org/1999/xhtml">1999-06-03: Blood pressure 136/77 mmHg</div>
    </text>
    <code>
      <coding>
        <system value="http://loinc.org"/>
        <code value="55284-4"/>
        <display value="Blood pressure systolic and diastolic"/>
      </coding>
    </code>
    <effectiveDateTime value="1999-06-03"/>
    <status value="final"/>
    <reliability value="ok"/>
    <subject>
      <reference value="Patient/ID1291938"/>
    </subject>
    <related>
      <type value="has-component"/>
      <target>
        <reference value="Observation/ID777-systolic"/>
      </target>
    </related>
    <related>
      <type value="has-component"/>
      <target>
        <reference value="Observation/ID777-diastolic"/>
      </target>
    </related>
    <encounter>
      <reference value="Encounter/ID777"/>
    </encounter>
    

  </Observation>
  
  </resource>
  <request>
    <method value="PUT"/>
    <url value="Observation/ID777-bp"/>
  </request>
</entry>
<entry>
  <resource>
    
    
  <Observation>
  <id value="ID777-systolic"/>
    <text>
      <status value="generated"/>
      <div xmlns="http://www.w3.org/1999/xhtml">1999-06-03: Systolic blood pressure = 136 mm[Hg]</div>
    </text>
    <code>
      <coding>
        <system value="http://loinc.org"/>
        <code value="8480-6"/>
        <display value="Systolic blood pressure"/>
      </coding>
    </code>
    <valueQuantity>
      <value value="136.0"/>
      <unit value="mm[Hg]"/>
      <system value="http://unitsofmeasure.org" />
      <code value="mm[Hg]"/>
    </valueQuantity>
    
    <effectiveDateTime value="1999-06-03"/>
    <status value="final"/>
    <reliability value="ok"/>
    <subject>
      <reference value="Patient/ID1291938"/>
    </subject>
  </Observation>
  
  </resource>
  <request>
    <method value="PUT"/>
    <url value="Observation/ID777-systolic"/>
  </request>
</entry>
<entry>
  <resource>
    
    
  <Observation>
  <id value="ID777-diastolic"/>
    <text>
      <status value="generated"/>
      <div xmlns="http://www.w3.org/1999/xhtml">1999-06-03: Diastolic blood pressure = 77 mm[Hg]</div>
    </text>
    <code>
      <coding>
        <system value="http://loinc.org"/>
        <code value="8462-4"/>
        <display value="Diastolic blood pressure"/>
      </coding>
    </code>
    <valueQuantity>
      <value value="77.0"/>
      <unit value="mm[Hg]"/>
      <system value="http://unitsofmeasure.org" />
      <code value="mm[Hg]"/>
    </valueQuantity>
    
    <effectiveDateTime value="1999-06-03"/>
    <status value="final"/>
    <reliability value="ok"/>
    <subject>
      <reference value="Patient/ID1291938"/>
    </subject>
  </Observation>
  
  </resource>
  <request>
    <method value="PUT"/>
    <url value="Observation/ID777-diastolic"/>
  </request>
</entry>
  <entry>
  <resource>
    
    
  <Observation>
    <id value="ID778-bp"/>
    <text>
      <status value="generated"/>
      <div xmlns="http://www.w3.org/1999/xhtml">1999-06-07: Blood pressure 136/77 mmHg</div>
    </text>
    <code>
      <coding>
        <system value="http://loinc.org"/>
        <code value="55284-4"/>
        <display value="Blood pressure systolic and diastolic"/>
      </coding>
    </code>
    <effectiveDateTime value="1999-06-07"/>
    <status value="final"/>
    <reliability value="ok"/>
    <subject>
      <reference value="Patient/ID1291938"/>
    </subject>
    <related>
      <type value="has-component"/>
      <target>
        <reference value="Observation/ID778-systolic"/>
      </target>
    </related>
    <related>
      <type value="has-component"/>
      <target>
        <reference value="Observation/ID778-diastolic"/>
      </target>
    </related>
    <encounter>
      <reference value="Encounter/ID778"/>
    </encounter>
    

  </Observation>
  
  </resource>
  <request>
    <method value="PUT"/>
    <url value="Observation/ID778-bp"/>
  </request>
</entry>
<entry>
  <resource>
    
    
  <Observation>
  <id value="ID778-systolic"/>
    <text>
      <status value="generated"/>
      <div xmlns="http://www.w3.org/1999/xhtml">1999-06-07: Systolic blood pressure = 136 mm[Hg]</div>
    </text>
    <code>
      <coding>
        <system value="http://loinc.org"/>
        <code value="8480-6"/>
        <display value="Systolic blood pressure"/>
      </coding>
    </code>
    <valueQuantity>
      <value value="136.0"/>
      <unit value="mm[Hg]"/>
      <system value="http://unitsofmeasure.org" />
      <code value="mm[Hg]"/>
    </valueQuantity>
    
    <effectiveDateTime value="1999-06-07"/>
    <status value="final"/>
    <reliability value="ok"/>
    <subject>
      <reference value="Patient/ID1291938"/>
    </subject>
  </Observation>
  
  </resource>
  <request>
    <method value="PUT"/>
    <url value="Observation/ID778-systolic"/>
  </request>
</entry>
<entry>
  <resource>
    
    
  <Observation>
  <id value="ID778-diastolic"/>
    <text>
      <status value="generated"/>
      <div xmlns="http://www.w3.org/1999/xhtml">1999-06-07: Diastolic blood pressure = 77 mm[Hg]</div>
    </text>
    <code>
      <coding>
        <system value="http://loinc.org"/>
        <code value="8462-4"/>
        <display value="Diastolic blood pressure"/>
      </coding>
    </code>
    <valueQuantity>
      <value value="77.0"/>
      <unit value="mm[Hg]"/>
      <system value="http://unitsofmeasure.org" />
      <code value="mm[Hg]"/>
    </valueQuantity>
    
    <effectiveDateTime value="1999-06-07"/>
    <status value="final"/>
    <reliability value="ok"/>
    <subject>
      <reference value="Patient/ID1291938"/>
    </subject>
  </Observation>
  
  </resource>
  <request>
    <method value="PUT"/>
    <url value="Observation/ID778-diastolic"/>
  </request>
</entry>
  <entry>
  <resource>
    
    
  <Observation>
    <id value="ID779-bp"/>
    <text>
      <status value="generated"/>
      <div xmlns="http://www.w3.org/1999/xhtml">1999-06-09: Blood pressure 132/74 mmHg</div>
    </text>
    <code>
      <coding>
        <system value="http://loinc.org"/>
        <code value="55284-4"/>
        <display value="Blood pressure systolic and diastolic"/>
      </coding>
    </code>
    <effectiveDateTime value="1999-06-09"/>
    <status value="final"/>
    <reliability value="ok"/>
    <subject>
      <reference value="Patient/ID1291938"/>
    </subject>
    <related>
      <type value="has-component"/>
      <target>
        <reference value="Observation/ID779-systolic"/>
      </target>
    </related>
    <related>
      <type value="has-component"/>
      <target>
        <reference value="Observation/ID779-diastolic"/>
      </target>
    </related>
    <encounter>
      <reference value="Encounter/ID779"/>
    </encounter>
    

  </Observation>
  
  </resource>
  <request>
    <method value="PUT"/>
    <url value="Observation/ID779-bp"/>
  </request>
</entry>
<entry>
  <resource>
    
    
  <Observation>
  <id value="ID779-systolic"/>
    <text>
      <status value="generated"/>
      <div xmlns="http://www.w3.org/1999/xhtml">1999-06-09: Systolic blood pressure = 132 mm[Hg]</div>
    </text>
    <code>
      <coding>
        <system value="http://loinc.org"/>
        <code value="8480-6"/>
        <display value="Systolic blood pressure"/>
      </coding>
    </code>
    <valueQuantity>
      <value value="132.0"/>
      <unit value="mm[Hg]"/>
      <system value="http://unitsofmeasure.org" />
      <code value="mm[Hg]"/>
    </valueQuantity>
    
    <effectiveDateTime value="1999-06-09"/>
    <status value="final"/>
    <reliability value="ok"/>
    <subject>
      <reference value="Patient/ID1291938"/>
    </subject>
  </Observation>
  
  </resource>
  <request>
    <method value="PUT"/>
    <url value="Observation/ID779-systolic"/>
  </request>
</entry>
<entry>
  <resource>
    
    
  <Observation>
  <id value="ID779-diastolic"/>
    <text>
      <status value="generated"/>
      <div xmlns="http://www.w3.org/1999/xhtml">1999-06-09: Diastolic blood pressure = 74 mm[Hg]</div>
    </text>
    <code>
      <coding>
        <system value="http://loinc.org"/>
        <code value="8462-4"/>
        <display value="Diastolic blood pressure"/>
      </coding>
    </code>
    <valueQuantity>
      <value value="74.0"/>
      <unit value="mm[Hg]"/>
      <system value="http://unitsofmeasure.org" />
      <code value="mm[Hg]"/>
    </valueQuantity>
    
    <effectiveDateTime value="1999-06-09"/>
    <status value="final"/>
    <reliability value="ok"/>
    <subject>
      <reference value="Patient/ID1291938"/>
    </subject>
  </Observation>
  
  </resource>
  <request>
    <method value="PUT"/>
    <url value="Observation/ID779-diastolic"/>
  </request>
</entry>
  <entry>
  <resource>
    
    
  <Observation>
    <id value="ID780-bp"/>
    <text>
      <status value="generated"/>
      <div xmlns="http://www.w3.org/1999/xhtml">2003-04-09: Blood pressure 135/74 mmHg</div>
    </text>
    <code>
      <coding>
        <system value="http://loinc.org"/>
        <code value="55284-4"/>
        <display value="Blood pressure systolic and diastolic"/>
      </coding>
    </code>
    <effectiveDateTime value="2003-04-09"/>
    <status value="final"/>
    <reliability value="ok"/>
    <subject>
      <reference value="Patient/ID1291938"/>
    </subject>
    <related>
      <type value="has-component"/>
      <target>
        <reference value="Observation/ID780-systolic"/>
      </target>
    </related>
    <related>
      <type value="has-component"/>
      <target>
        <reference value="Observation/ID780-diastolic"/>
      </target>
    </related>
    <encounter>
      <reference value="Encounter/ID780"/>
    </encounter>
    

  </Observation>
  
  </resource>
  <request>
    <method value="PUT"/>
    <url value="Observation/ID780-bp"/>
  </request>
</entry>
<entry>
  <resource>
    
    
  <Observation>
  <id value="ID780-systolic"/>
    <text>
      <status value="generated"/>
      <div xmlns="http://www.w3.org/1999/xhtml">2003-04-09: Systolic blood pressure = 135 mm[Hg]</div>
    </text>
    <code>
      <coding>
        <system value="http://loinc.org"/>
        <code value="8480-6"/>
        <display value="Systolic blood pressure"/>
      </coding>
    </code>
    <valueQuantity>
      <value value="135.0"/>
      <unit value="mm[Hg]"/>
      <system value="http://unitsofmeasure.org" />
      <code value="mm[Hg]"/>
    </valueQuantity>
    
    <effectiveDateTime value="2003-04-09"/>
    <status value="final"/>
    <reliability value="ok"/>
    <subject>
      <reference value="Patient/ID1291938"/>
    </subject>
  </Observation>
  
  </resource>
  <request>
    <method value="PUT"/>
    <url value="Observation/ID780-systolic"/>
  </request>
</entry>
<entry>
  <resource>
    
    
  <Observation>
  <id value="ID780-diastolic"/>
    <text>
      <status value="generated"/>
      <div xmlns="http://www.w3.org/1999/xhtml">2003-04-09: Diastolic blood pressure = 74 mm[Hg]</div>
    </text>
    <code>
      <coding>
        <system value="http://loinc.org"/>
        <code value="8462-4"/>
        <display value="Diastolic blood pressure"/>
      </coding>
    </code>
    <valueQuantity>
      <value value="74.0"/>
      <unit value="mm[Hg]"/>
      <system value="http://unitsofmeasure.org" />
      <code value="mm[Hg]"/>
    </valueQuantity>
    
    <effectiveDateTime value="2003-04-09"/>
    <status value="final"/>
    <reliability value="ok"/>
    <subject>
      <reference value="Patient/ID1291938"/>
    </subject>
  </Observation>
  
  </resource>
  <request>
    <method value="PUT"/>
    <url value="Observation/ID780-diastolic"/>
  </request>
</entry>
  <entry>
  <resource>
    
    
  <Observation>
    <id value="ID781-bp"/>
    <text>
      <status value="generated"/>
      <div xmlns="http://www.w3.org/1999/xhtml">2003-04-11: Blood pressure 135/74 mmHg</div>
    </text>
    <code>
      <coding>
        <system value="http://loinc.org"/>
        <code value="55284-4"/>
        <display value="Blood pressure systolic and diastolic"/>
      </coding>
    </code>
    <effectiveDateTime value="2003-04-11"/>
    <status value="final"/>
    <reliability value="ok"/>
    <subject>
      <reference value="Patient/ID1291938"/>
    </subject>
    <related>
      <type value="has-component"/>
      <target>
        <reference value="Observation/ID781-systolic"/>
      </target>
    </related>
    <related>
      <type value="has-component"/>
      <target>
        <reference value="Observation/ID781-diastolic"/>
      </target>
    </related>
    <encounter>
      <reference value="Encounter/ID781"/>
    </encounter>
    

  </Observation>
  
  </resource>
  <request>
    <method value="PUT"/>
    <url value="Observation/ID781-bp"/>
  </request>
</entry>
<entry>
  <resource>
    
    
  <Observation>
  <id value="ID781-systolic"/>
    <text>
      <status value="generated"/>
      <div xmlns="http://www.w3.org/1999/xhtml">2003-04-11: Systolic blood pressure = 135 mm[Hg]</div>
    </text>
    <code>
      <coding>
        <system value="http://loinc.org"/>
        <code value="8480-6"/>
        <display value="Systolic blood pressure"/>
      </coding>
    </code>
    <valueQuantity>
      <value value="135.0"/>
      <unit value="mm[Hg]"/>
      <system value="http://unitsofmeasure.org" />
      <code value="mm[Hg]"/>
    </valueQuantity>
    
    <effectiveDateTime value="2003-04-11"/>
    <status value="final"/>
    <reliability value="ok"/>
    <subject>
      <reference value="Patient/ID1291938"/>
    </subject>
  </Observation>
  
  </resource>
  <request>
    <method value="PUT"/>
    <url value="Observation/ID781-systolic"/>
  </request>
</entry>
<entry>
  <resource>
    
    
  <Observation>
  <id value="ID781-diastolic"/>
    <text>
      <status value="generated"/>
      <div xmlns="http://www.w3.org/1999/xhtml">2003-04-11: Diastolic blood pressure = 74 mm[Hg]</div>
    </text>
    <code>
      <coding>
        <system value="http://loinc.org"/>
        <code value="8462-4"/>
        <display value="Diastolic blood pressure"/>
      </coding>
    </code>
    <valueQuantity>
      <value value="74.0"/>
      <unit value="mm[Hg]"/>
      <system value="http://unitsofmeasure.org" />
      <code value="mm[Hg]"/>
    </valueQuantity>
    
    <effectiveDateTime value="2003-04-11"/>
    <status value="final"/>
    <reliability value="ok"/>
    <subject>
      <reference value="Patient/ID1291938"/>
    </subject>
  </Observation>
  
  </resource>
  <request>
    <method value="PUT"/>
    <url value="Observation/ID781-diastolic"/>
  </request>
</entry>
  <entry>
  <resource>
    
    
  <Observation>
    <id value="ID782-bp"/>
    <text>
      <status value="generated"/>
      <div xmlns="http://www.w3.org/1999/xhtml">2003-04-14: Blood pressure 137/75 mmHg</div>
    </text>
    <code>
      <coding>
        <system value="http://loinc.org"/>
        <code value="55284-4"/>
        <display value="Blood pressure systolic and diastolic"/>
      </coding>
    </code>
    <effectiveDateTime value="2003-04-14"/>
    <status value="final"/>
    <reliability value="ok"/>
    <subject>
      <reference value="Patient/ID1291938"/>
    </subject>
    <related>
      <type value="has-component"/>
      <target>
        <reference value="Observation/ID782-systolic"/>
      </target>
    </related>
    <related>
      <type value="has-component"/>
      <target>
        <reference value="Observation/ID782-diastolic"/>
      </target>
    </related>
    <encounter>
      <reference value="Encounter/ID782"/>
    </encounter>
    

  </Observation>
  
  </resource>
  <request>
    <method value="PUT"/>
    <url value="Observation/ID782-bp"/>
  </request>
</entry>
<entry>
  <resource>
    
    
  <Observation>
  <id value="ID782-systolic"/>
    <text>
      <status value="generated"/>
      <div xmlns="http://www.w3.org/1999/xhtml">2003-04-14: Systolic blood pressure = 137 mm[Hg]</div>
    </text>
    <code>
      <coding>
        <system value="http://loinc.org"/>
        <code value="8480-6"/>
        <display value="Systolic blood pressure"/>
      </coding>
    </code>
    <valueQuantity>
      <value value="137.0"/>
      <unit value="mm[Hg]"/>
      <system value="http://unitsofmeasure.org" />
      <code value="mm[Hg]"/>
    </valueQuantity>
    
    <effectiveDateTime value="2003-04-14"/>
    <status value="final"/>
    <reliability value="ok"/>
    <subject>
      <reference value="Patient/ID1291938"/>
    </subject>
  </Observation>
  
  </resource>
  <request>
    <method value="PUT"/>
    <url value="Observation/ID782-systolic"/>
  </request>
</entry>
<entry>
  <resource>
    
    
  <Observation>
  <id value="ID782-diastolic"/>
    <text>
      <status value="generated"/>
      <div xmlns="http://www.w3.org/1999/xhtml">2003-04-14: Diastolic blood pressure = 75 mm[Hg]</div>
    </text>
    <code>
      <coding>
        <system value="http://loinc.org"/>
        <code value="8462-4"/>
        <display value="Diastolic blood pressure"/>
      </coding>
    </code>
    <valueQuantity>
      <value value="75.0"/>
      <unit value="mm[Hg]"/>
      <system value="http://unitsofmeasure.org" />
      <code value="mm[Hg]"/>
    </valueQuantity>
    
    <effectiveDateTime value="2003-04-14"/>
    <status value="final"/>
    <reliability value="ok"/>
    <subject>
      <reference value="Patient/ID1291938"/>
    </subject>
  </Observation>
  
  </resource>
  <request>
    <method value="PUT"/>
    <url value="Observation/ID782-diastolic"/>
  </request>
</entry>
  <entry>
  <resource>
    
    
  <Observation>
    <id value="ID783-bp"/>
    <text>
      <status value="generated"/>
      <div xmlns="http://www.w3.org/1999/xhtml">2003-04-15: Blood pressure 133/73 mmHg</div>
    </text>
    <code>
      <coding>
        <system value="http://loinc.org"/>
        <code value="55284-4"/>
        <display value="Blood pressure systolic and diastolic"/>
      </coding>
    </code>
    <effectiveDateTime value="2003-04-15"/>
    <status value="final"/>
    <reliability value="ok"/>
    <subject>
      <reference value="Patient/ID1291938"/>
    </subject>
    <related>
      <type value="has-component"/>
      <target>
        <reference value="Observation/ID783-systolic"/>
      </target>
    </related>
    <related>
      <type value="has-component"/>
      <target>
        <reference value="Observation/ID783-diastolic"/>
      </target>
    </related>
    <encounter>
      <reference value="Encounter/ID783"/>
    </encounter>
    

  </Observation>
  
  </resource>
  <request>
    <method value="PUT"/>
    <url value="Observation/ID783-bp"/>
  </request>
</entry>
<entry>
  <resource>
    
    
  <Observation>
  <id value="ID783-systolic"/>
    <text>
      <status value="generated"/>
      <div xmlns="http://www.w3.org/1999/xhtml">2003-04-15: Systolic blood pressure = 133 mm[Hg]</div>
    </text>
    <code>
      <coding>
        <system value="http://loinc.org"/>
        <code value="8480-6"/>
        <display value="Systolic blood pressure"/>
      </coding>
    </code>
    <valueQuantity>
      <value value="133.0"/>
      <unit value="mm[Hg]"/>
      <system value="http://unitsofmeasure.org" />
      <code value="mm[Hg]"/>
    </valueQuantity>
    
    <effectiveDateTime value="2003-04-15"/>
    <status value="final"/>
    <reliability value="ok"/>
    <subject>
      <reference value="Patient/ID1291938"/>
    </subject>
  </Observation>
  
  </resource>
  <request>
    <method value="PUT"/>
    <url value="Observation/ID783-systolic"/>
  </request>
</entry>
<entry>
  <resource>
    
    
  <Observation>
  <id value="ID783-diastolic"/>
    <text>
      <status value="generated"/>
      <div xmlns="http://www.w3.org/1999/xhtml">2003-04-15: Diastolic blood pressure = 73 mm[Hg]</div>
    </text>
    <code>
      <coding>
        <system value="http://loinc.org"/>
        <code value="8462-4"/>
        <display value="Diastolic blood pressure"/>
      </coding>
    </code>
    <valueQuantity>
      <value value="73.0"/>
      <unit value="mm[Hg]"/>
      <system value="http://unitsofmeasure.org" />
      <code value="mm[Hg]"/>
    </valueQuantity>
    
    <effectiveDateTime value="2003-04-15"/>
    <status value="final"/>
    <reliability value="ok"/>
    <subject>
      <reference value="Patient/ID1291938"/>
    </subject>
  </Observation>
  
  </resource>
  <request>
    <method value="PUT"/>
    <url value="Observation/ID783-diastolic"/>
  </request>
</entry>
  <entry>
  <resource>
    
    
  <Observation>
    <id value="ID784-bp"/>
    <text>
      <status value="generated"/>
      <div xmlns="http://www.w3.org/1999/xhtml">2006-03-14: Blood pressure 137/74 mmHg</div>
    </text>
    <code>
      <coding>
        <system value="http://loinc.org"/>
        <code value="55284-4"/>
        <display value="Blood pressure systolic and diastolic"/>
      </coding>
    </code>
    <effectiveDateTime value="2006-03-14"/>
    <status value="final"/>
    <reliability value="ok"/>
    <subject>
      <reference value="Patient/ID1291938"/>
    </subject>
    <related>
      <type value="has-component"/>
      <target>
        <reference value="Observation/ID784-systolic"/>
      </target>
    </related>
    <related>
      <type value="has-component"/>
      <target>
        <reference value="Observation/ID784-diastolic"/>
      </target>
    </related>
    <encounter>
      <reference value="Encounter/ID784"/>
    </encounter>
    

  </Observation>
  
  </resource>
  <request>
    <method value="PUT"/>
    <url value="Observation/ID784-bp"/>
  </request>
</entry>
<entry>
  <resource>
    
    
  <Observation>
  <id value="ID784-systolic"/>
    <text>
      <status value="generated"/>
      <div xmlns="http://www.w3.org/1999/xhtml">2006-03-14: Systolic blood pressure = 137 mm[Hg]</div>
    </text>
    <code>
      <coding>
        <system value="http://loinc.org"/>
        <code value="8480-6"/>
        <display value="Systolic blood pressure"/>
      </coding>
    </code>
    <valueQuantity>
      <value value="137.0"/>
      <unit value="mm[Hg]"/>
      <system value="http://unitsofmeasure.org" />
      <code value="mm[Hg]"/>
    </valueQuantity>
    
    <effectiveDateTime value="2006-03-14"/>
    <status value="final"/>
    <reliability value="ok"/>
    <subject>
      <reference value="Patient/ID1291938"/>
    </subject>
  </Observation>
  
  </resource>
  <request>
    <method value="PUT"/>
    <url value="Observation/ID784-systolic"/>
  </request>
</entry>
<entry>
  <resource>
    
    
  <Observation>
  <id value="ID784-diastolic"/>
    <text>
      <status value="generated"/>
      <div xmlns="http://www.w3.org/1999/xhtml">2006-03-14: Diastolic blood pressure = 74 mm[Hg]</div>
    </text>
    <code>
      <coding>
        <system value="http://loinc.org"/>
        <code value="8462-4"/>
        <display value="Diastolic blood pressure"/>
      </coding>
    </code>
    <valueQuantity>
      <value value="74.0"/>
      <unit value="mm[Hg]"/>
      <system value="http://unitsofmeasure.org" />
      <code value="mm[Hg]"/>
    </valueQuantity>
    
    <effectiveDateTime value="2006-03-14"/>
    <status value="final"/>
    <reliability value="ok"/>
    <subject>
      <reference value="Patient/ID1291938"/>
    </subject>
  </Observation>
  
  </resource>
  <request>
    <method value="PUT"/>
    <url value="Observation/ID784-diastolic"/>
  </request>
</entry>
  <entry>
  <resource>
    
    
  <Observation>
    <id value="ID785-bp"/>
    <text>
      <status value="generated"/>
      <div xmlns="http://www.w3.org/1999/xhtml">2006-03-15: Blood pressure 136/73 mmHg</div>
    </text>
    <code>
      <coding>
        <system value="http://loinc.org"/>
        <code value="55284-4"/>
        <display value="Blood pressure systolic and diastolic"/>
      </coding>
    </code>
    <effectiveDateTime value="2006-03-15"/>
    <status value="final"/>
    <reliability value="ok"/>
    <subject>
      <reference value="Patient/ID1291938"/>
    </subject>
    <related>
      <type value="has-component"/>
      <target>
        <reference value="Observation/ID785-systolic"/>
      </target>
    </related>
    <related>
      <type value="has-component"/>
      <target>
        <reference value="Observation/ID785-diastolic"/>
      </target>
    </related>
    <encounter>
      <reference value="Encounter/ID785"/>
    </encounter>
    

  </Observation>
  
  </resource>
  <request>
    <method value="PUT"/>
    <url value="Observation/ID785-bp"/>
  </request>
</entry>
<entry>
  <resource>
    
    
  <Observation>
  <id value="ID785-systolic"/>
    <text>
      <status value="generated"/>
      <div xmlns="http://www.w3.org/1999/xhtml">2006-03-15: Systolic blood pressure = 136 mm[Hg]</div>
    </text>
    <code>
      <coding>
        <system value="http://loinc.org"/>
        <code value="8480-6"/>
        <display value="Systolic blood pressure"/>
      </coding>
    </code>
    <valueQuantity>
      <value value="136.0"/>
      <unit value="mm[Hg]"/>
      <system value="http://unitsofmeasure.org" />
      <code value="mm[Hg]"/>
    </valueQuantity>
    
    <effectiveDateTime value="2006-03-15"/>
    <status value="final"/>
    <reliability value="ok"/>
    <subject>
      <reference value="Patient/ID1291938"/>
    </subject>
  </Observation>
  
  </resource>
  <request>
    <method value="PUT"/>
    <url value="Observation/ID785-systolic"/>
  </request>
</entry>
<entry>
  <resource>
    
    
  <Observation>
  <id value="ID785-diastolic"/>
    <text>
      <status value="generated"/>
      <div xmlns="http://www.w3.org/1999/xhtml">2006-03-15: Diastolic blood pressure = 73 mm[Hg]</div>
    </text>
    <code>
      <coding>
        <system value="http://loinc.org"/>
        <code value="8462-4"/>
        <display value="Diastolic blood pressure"/>
      </coding>
    </code>
    <valueQuantity>
      <value value="73.0"/>
      <unit value="mm[Hg]"/>
      <system value="http://unitsofmeasure.org" />
      <code value="mm[Hg]"/>
    </valueQuantity>
    
    <effectiveDateTime value="2006-03-15"/>
    <status value="final"/>
    <reliability value="ok"/>
    <subject>
      <reference value="Patient/ID1291938"/>
    </subject>
  </Observation>
  
  </resource>
  <request>
    <method value="PUT"/>
    <url value="Observation/ID785-diastolic"/>
  </request>
</entry>
  <entry>
  <resource>
    
    
  <Observation>
    <id value="ID786-bp"/>
    <text>
      <status value="generated"/>
      <div xmlns="http://www.w3.org/1999/xhtml">2006-03-16: Blood pressure 135/72 mmHg</div>
    </text>
    <code>
      <coding>
        <system value="http://loinc.org"/>
        <code value="55284-4"/>
        <display value="Blood pressure systolic and diastolic"/>
      </coding>
    </code>
    <effectiveDateTime value="2006-03-16"/>
    <status value="final"/>
    <reliability value="ok"/>
    <subject>
      <reference value="Patient/ID1291938"/>
    </subject>
    <related>
      <type value="has-component"/>
      <target>
        <reference value="Observation/ID786-systolic"/>
      </target>
    </related>
    <related>
      <type value="has-component"/>
      <target>
        <reference value="Observation/ID786-diastolic"/>
      </target>
    </related>
    <encounter>
      <reference value="Encounter/ID786"/>
    </encounter>
    

  </Observation>
  
  </resource>
  <request>
    <method value="PUT"/>
    <url value="Observation/ID786-bp"/>
  </request>
</entry>
<entry>
  <resource>
    
    
  <Observation>
  <id value="ID786-systolic"/>
    <text>
      <status value="generated"/>
      <div xmlns="http://www.w3.org/1999/xhtml">2006-03-16: Systolic blood pressure = 135 mm[Hg]</div>
    </text>
    <code>
      <coding>
        <system value="http://loinc.org"/>
        <code value="8480-6"/>
        <display value="Systolic blood pressure"/>
      </coding>
    </code>
    <valueQuantity>
      <value value="135.0"/>
      <unit value="mm[Hg]"/>
      <system value="http://unitsofmeasure.org" />
      <code value="mm[Hg]"/>
    </valueQuantity>
    
    <effectiveDateTime value="2006-03-16"/>
    <status value="final"/>
    <reliability value="ok"/>
    <subject>
      <reference value="Patient/ID1291938"/>
    </subject>
  </Observation>
  
  </resource>
  <request>
    <method value="PUT"/>
    <url value="Observation/ID786-systolic"/>
  </request>
</entry>
<entry>
  <resource>
    
    
  <Observation>
  <id value="ID786-diastolic"/>
    <text>
      <status value="generated"/>
      <div xmlns="http://www.w3.org/1999/xhtml">2006-03-16: Diastolic blood pressure = 72 mm[Hg]</div>
    </text>
    <code>
      <coding>
        <system value="http://loinc.org"/>
        <code value="8462-4"/>
        <display value="Diastolic blood pressure"/>
      </coding>
    </code>
    <valueQuantity>
      <value value="72.0"/>
      <unit value="mm[Hg]"/>
      <system value="http://unitsofmeasure.org" />
      <code value="mm[Hg]"/>
    </valueQuantity>
    
    <effectiveDateTime value="2006-03-16"/>
    <status value="final"/>
    <reliability value="ok"/>
    <subject>
      <reference value="Patient/ID1291938"/>
    </subject>
  </Observation>
  
  </resource>
  <request>
    <method value="PUT"/>
    <url value="Observation/ID786-diastolic"/>
  </request>
</entry>
<entry>
  <resource>
    
    
  <Observation>
  <id value="ID766-height"/>
    <text>
      <status value="generated"/>
      <div xmlns="http://www.w3.org/1999/xhtml">1997-05-17: height = 173.99 cm</div>
    </text>
    <code>
      <coding>
        <system value="http://loinc.org"/>
        <code value="8302-2"/>
        <display value="height"/>
      </coding>
    </code>
    <valueQuantity>
      <value value="173.99"/>
      <unit value="cm"/>
      <system value="http://unitsofmeasure.org" />
      <code value="cm"/>
    </valueQuantity>
    
    <effectiveDateTime value="1997-05-17"/>
    <status value="final"/>
    <reliability value="ok"/>
    <subject>
      <reference value="Patient/ID1291938"/>
    </subject>
    <encounter>
      <reference value="Encounter/ID766"/>
    </encounter>
    
  </Observation>
  
  </resource>
  <request>
    <method value="PUT"/>
    <url value="Observation/ID766-height"/>
  </request>
</entry>
<entry>
  <resource>
    
    
  <Observation>
  <id value="ID766-heartrate"/>
    <text>
      <status value="generated"/>
      <div xmlns="http://www.w3.org/1999/xhtml">1997-05-17: heart_rate = 91.0 {beats}/min</div>
    </text>
    <code>
      <coding>
        <system value="http://loinc.org"/>
        <code value="8867-4"/>
        <display value="heart_rate"/>
      </coding>
    </code>
    <valueQuantity>
      <value value="91.0"/>
      <unit value="{beats}/min"/>
      <system value="http://unitsofmeasure.org" />
      <code value="{beats}/min"/>
    </valueQuantity>
    
    <effectiveDateTime value="1997-05-17"/>
    <status value="final"/>
    <reliability value="ok"/>
    <subject>
      <reference value="Patient/ID1291938"/>
    </subject>
    <encounter>
      <reference value="Encounter/ID766"/>
    </encounter>
    
  </Observation>
  
  </resource>
  <request>
    <method value="PUT"/>
    <url value="Observation/ID766-heartrate"/>
  </request>
</entry>
<entry>
  <resource>
    
    
  <Observation>
  <id value="ID766-respiratoryrate"/>
    <text>
      <status value="generated"/>
      <div xmlns="http://www.w3.org/1999/xhtml">1997-05-17: respiratory_rate = 18.0 {breaths}/min</div>
    </text>
    <code>
      <coding>
        <system value="http://loinc.org"/>
        <code value="9279-1"/>
        <display value="respiratory_rate"/>
      </coding>
    </code>
    <valueQuantity>
      <value value="18.0"/>
      <unit value="{breaths}/min"/>
      <system value="http://unitsofmeasure.org" />
      <code value="{breaths}/min"/>
    </valueQuantity>
    
    <effectiveDateTime value="1997-05-17"/>
    <status value="final"/>
    <reliability value="ok"/>
    <subject>
      <reference value="Patient/ID1291938"/>
    </subject>
    <encounter>
      <reference value="Encounter/ID766"/>
    </encounter>
    
  </Observation>
  
  </resource>
  <request>
    <method value="PUT"/>
    <url value="Observation/ID766-respiratoryrate"/>
  </request>
</entry>
<entry>
  <resource>
    
    
  <Observation>
  <id value="ID766-temperature"/>
    <text>
      <status value="generated"/>
      <div xmlns="http://www.w3.org/1999/xhtml">1997-05-17: temperature = 36.11111 Cel</div>
    </text>
    <code>
      <coding>
        <system value="http://loinc.org"/>
        <code value="8310-5"/>
        <display value="temperature"/>
      </coding>
    </code>
    <valueQuantity>
      <value value="36.11111"/>
      <unit value="Cel"/>
      <system value="http://unitsofmeasure.org" />
      <code value="Cel"/>
    </valueQuantity>
    
    <effectiveDateTime value="1997-05-17"/>
    <status value="final"/>
    <reliability value="ok"/>
    <subject>
      <reference value="Patient/ID1291938"/>
    </subject>
    <encounter>
      <reference value="Encounter/ID766"/>
    </encounter>
    
  </Observation>
  
  </resource>
  <request>
    <method value="PUT"/>
    <url value="Observation/ID766-temperature"/>
  </request>
</entry>
<entry>
  <resource>
    
    
  <Observation>
  <id value="ID766-weight"/>
    <text>
      <status value="generated"/>
      <div xmlns="http://www.w3.org/1999/xhtml">1997-05-17: weight = 99.15529 kg</div>
    </text>
    <code>
      <coding>
        <system value="http://loinc.org"/>
        <code value="3141-9"/>
        <display value="weight"/>
      </coding>
    </code>
    <valueQuantity>
      <value value="99.15529"/>
      <unit value="kg"/>
      <system value="http://unitsofmeasure.org" />
      <code value="kg"/>
    </valueQuantity>
    
    <effectiveDateTime value="1997-05-17"/>
    <status value="final"/>
    <reliability value="ok"/>
    <subject>
      <reference value="Patient/ID1291938"/>
    </subject>
    <encounter>
      <reference value="Encounter/ID766"/>
    </encounter>
    
  </Observation>
  
  </resource>
  <request>
    <method value="PUT"/>
    <url value="Observation/ID766-weight"/>
  </request>
</entry>
<entry>
  <resource>
    
    
  <Observation>
  <id value="ID766-bmi"/>
    <text>
      <status value="generated"/>
      <div xmlns="http://www.w3.org/1999/xhtml">1997-05-17: bmi = 32.8 kg/m2</div>
    </text>
    <code>
      <coding>
        <system value="http://loinc.org"/>
        <code value="39156-5"/>
        <display value="bmi"/>
      </coding>
    </code>
    <valueQuantity>
      <value value="32.8"/>
      <unit value="kg/m2"/>
      <system value="http://unitsofmeasure.org" />
      <code value="kg/m2"/>
    </valueQuantity>
    
    <effectiveDateTime value="1997-05-17"/>
    <status value="final"/>
    <reliability value="ok"/>
    <subject>
      <reference value="Patient/ID1291938"/>
    </subject>
    <encounter>
      <reference value="Encounter/ID766"/>
    </encounter>
    
  </Observation>
  
  </resource>
  <request>
    <method value="PUT"/>
    <url value="Observation/ID766-bmi"/>
  </request>
</entry>
<entry>
  <resource>
    
    
  <Observation>
  <id value="ID766-oxygensaturation"/>
    <text>
      <status value="generated"/>
      <div xmlns="http://www.w3.org/1999/xhtml">1997-05-17: oxygen_saturation = 96.0 %{HemoglobinSaturation}</div>
    </text>
    <code>
      <coding>
        <system value="http://loinc.org"/>
        <code value="2710-2"/>
        <display value="oxygen_saturation"/>
      </coding>
    </code>
    <valueQuantity>
      <value value="96.0"/>
      <unit value="%{HemoglobinSaturation}"/>
      <system value="http://unitsofmeasure.org" />
      <code value="%{HemoglobinSaturation}"/>
    </valueQuantity>
    
    <effectiveDateTime value="1997-05-17"/>
    <status value="final"/>
    <reliability value="ok"/>
    <subject>
      <reference value="Patient/ID1291938"/>
    </subject>
    <encounter>
      <reference value="Encounter/ID766"/>
    </encounter>
    
  </Observation>
  
  </resource>
  <request>
    <method value="PUT"/>
    <url value="Observation/ID766-oxygensaturation"/>
  </request>
</entry>
<entry>
  <resource>
    
    
  <Observation>
  <id value="ID767-height"/>
    <text>
      <status value="generated"/>
      <div xmlns="http://www.w3.org/1999/xhtml">1997-05-19: height = 174.244 cm</div>
    </text>
    <code>
      <coding>
        <system value="http://loinc.org"/>
        <code value="8302-2"/>
        <display value="height"/>
      </coding>
    </code>
    <valueQuantity>
      <value value="174.244"/>
      <unit value="cm"/>
      <system value="http://unitsofmeasure.org" />
      <code value="cm"/>
    </valueQuantity>
    
    <effectiveDateTime value="1997-05-19"/>
    <status value="final"/>
    <reliability value="ok"/>
    <subject>
      <reference value="Patient/ID1291938"/>
    </subject>
    <encounter>
      <reference value="Encounter/ID767"/>
    </encounter>
    
  </Observation>
  
  </resource>
  <request>
    <method value="PUT"/>
    <url value="Observation/ID767-height"/>
  </request>
</entry>
<entry>
  <resource>
    
    
  <Observation>
  <id value="ID767-heartrate"/>
    <text>
      <status value="generated"/>
      <div xmlns="http://www.w3.org/1999/xhtml">1997-05-19: heart_rate = 77.0 {beats}/min</div>
    </text>
    <code>
      <coding>
        <system value="http://loinc.org"/>
        <code value="8867-4"/>
        <display value="heart_rate"/>
      </coding>
    </code>
    <valueQuantity>
      <value value="77.0"/>
      <unit value="{beats}/min"/>
      <system value="http://unitsofmeasure.org" />
      <code value="{beats}/min"/>
    </valueQuantity>
    
    <effectiveDateTime value="1997-05-19"/>
    <status value="final"/>
    <reliability value="ok"/>
    <subject>
      <reference value="Patient/ID1291938"/>
    </subject>
    <encounter>
      <reference value="Encounter/ID767"/>
    </encounter>
    
  </Observation>
  
  </resource>
  <request>
    <method value="PUT"/>
    <url value="Observation/ID767-heartrate"/>
  </request>
</entry>
<entry>
  <resource>
    
    
  <Observation>
  <id value="ID767-respiratoryrate"/>
    <text>
      <status value="generated"/>
      <div xmlns="http://www.w3.org/1999/xhtml">1997-05-19: respiratory_rate = 18.0 {breaths}/min</div>
    </text>
    <code>
      <coding>
        <system value="http://loinc.org"/>
        <code value="9279-1"/>
        <display value="respiratory_rate"/>
      </coding>
    </code>
    <valueQuantity>
      <value value="18.0"/>
      <unit value="{breaths}/min"/>
      <system value="http://unitsofmeasure.org" />
      <code value="{breaths}/min"/>
    </valueQuantity>
    
    <effectiveDateTime value="1997-05-19"/>
    <status value="final"/>
    <reliability value="ok"/>
    <subject>
      <reference value="Patient/ID1291938"/>
    </subject>
    <encounter>
      <reference value="Encounter/ID767"/>
    </encounter>
    
  </Observation>
  
  </resource>
  <request>
    <method value="PUT"/>
    <url value="Observation/ID767-respiratoryrate"/>
  </request>
</entry>
<entry>
  <resource>
    
    
  <Observation>
  <id value="ID767-temperature"/>
    <text>
      <status value="generated"/>
      <div xmlns="http://www.w3.org/1999/xhtml">1997-05-19: temperature = 36.11111 Cel</div>
    </text>
    <code>
      <coding>
        <system value="http://loinc.org"/>
        <code value="8310-5"/>
        <display value="temperature"/>
      </coding>
    </code>
    <valueQuantity>
      <value value="36.11111"/>
      <unit value="Cel"/>
      <system value="http://unitsofmeasure.org" />
      <code value="Cel"/>
    </valueQuantity>
    
    <effectiveDateTime value="1997-05-19"/>
    <status value="final"/>
    <reliability value="ok"/>
    <subject>
      <reference value="Patient/ID1291938"/>
    </subject>
    <encounter>
      <reference value="Encounter/ID767"/>
    </encounter>
    
  </Observation>
  
  </resource>
  <request>
    <method value="PUT"/>
    <url value="Observation/ID767-temperature"/>
  </request>
</entry>
<entry>
  <resource>
    
    
  <Observation>
  <id value="ID767-weight"/>
    <text>
      <status value="generated"/>
      <div xmlns="http://www.w3.org/1999/xhtml">1997-05-19: weight = 97.477 kg</div>
    </text>
    <code>
      <coding>
        <system value="http://loinc.org"/>
        <code value="3141-9"/>
        <display value="weight"/>
      </coding>
    </code>
    <valueQuantity>
      <value value="97.477"/>
      <unit value="kg"/>
      <system value="http://unitsofmeasure.org" />
      <code value="kg"/>
    </valueQuantity>
    
    <effectiveDateTime value="1997-05-19"/>
    <status value="final"/>
    <reliability value="ok"/>
    <subject>
      <reference value="Patient/ID1291938"/>
    </subject>
    <encounter>
      <reference value="Encounter/ID767"/>
    </encounter>
    
  </Observation>
  
  </resource>
  <request>
    <method value="PUT"/>
    <url value="Observation/ID767-weight"/>
  </request>
</entry>
<entry>
  <resource>
    
    
  <Observation>
  <id value="ID767-bmi"/>
    <text>
      <status value="generated"/>
      <div xmlns="http://www.w3.org/1999/xhtml">1997-05-19: bmi = 32.2 kg/m2</div>
    </text>
    <code>
      <coding>
        <system value="http://loinc.org"/>
        <code value="39156-5"/>
        <display value="bmi"/>
      </coding>
    </code>
    <valueQuantity>
      <value value="32.2"/>
      <unit value="kg/m2"/>
      <system value="http://unitsofmeasure.org" />
      <code value="kg/m2"/>
    </valueQuantity>
    
    <effectiveDateTime value="1997-05-19"/>
    <status value="final"/>
    <reliability value="ok"/>
    <subject>
      <reference value="Patient/ID1291938"/>
    </subject>
    <encounter>
      <reference value="Encounter/ID767"/>
    </encounter>
    
  </Observation>
  
  </resource>
  <request>
    <method value="PUT"/>
    <url value="Observation/ID767-bmi"/>
  </request>
</entry>
<entry>
  <resource>
    
    
  <Observation>
  <id value="ID767-oxygensaturation"/>
    <text>
      <status value="generated"/>
      <div xmlns="http://www.w3.org/1999/xhtml">1997-05-19: oxygen_saturation = 96.0 %{HemoglobinSaturation}</div>
    </text>
    <code>
      <coding>
        <system value="http://loinc.org"/>
        <code value="2710-2"/>
        <display value="oxygen_saturation"/>
      </coding>
    </code>
    <valueQuantity>
      <value value="96.0"/>
      <unit value="%{HemoglobinSaturation}"/>
      <system value="http://unitsofmeasure.org" />
      <code value="%{HemoglobinSaturation}"/>
    </valueQuantity>
    
    <effectiveDateTime value="1997-05-19"/>
    <status value="final"/>
    <reliability value="ok"/>
    <subject>
      <reference value="Patient/ID1291938"/>
    </subject>
    <encounter>
      <reference value="Encounter/ID767"/>
    </encounter>
    
  </Observation>
  
  </resource>
  <request>
    <method value="PUT"/>
    <url value="Observation/ID767-oxygensaturation"/>
  </request>
</entry>
<entry>
  <resource>
    
    
  <Observation>
  <id value="ID768-height"/>
    <text>
      <status value="generated"/>
      <div xmlns="http://www.w3.org/1999/xhtml">1997-06-18: height = 173.99 cm</div>
    </text>
    <code>
      <coding>
        <system value="http://loinc.org"/>
        <code value="8302-2"/>
        <display value="height"/>
      </coding>
    </code>
    <valueQuantity>
      <value value="173.99"/>
      <unit value="cm"/>
      <system value="http://unitsofmeasure.org" />
      <code value="cm"/>
    </valueQuantity>
    
    <effectiveDateTime value="1997-06-18"/>
    <status value="final"/>
    <reliability value="ok"/>
    <subject>
      <reference value="Patient/ID1291938"/>
    </subject>
    <encounter>
      <reference value="Encounter/ID768"/>
    </encounter>
    
  </Observation>
  
  </resource>
  <request>
    <method value="PUT"/>
    <url value="Observation/ID768-height"/>
  </request>
</entry>
<entry>
  <resource>
    
    
  <Observation>
  <id value="ID768-heartrate"/>
    <text>
      <status value="generated"/>
      <div xmlns="http://www.w3.org/1999/xhtml">1997-06-18: heart_rate = 77.0 {beats}/min</div>
    </text>
    <code>
      <coding>
        <system value="http://loinc.org"/>
        <code value="8867-4"/>
        <display value="heart_rate"/>
      </coding>
    </code>
    <valueQuantity>
      <value value="77.0"/>
      <unit value="{beats}/min"/>
      <system value="http://unitsofmeasure.org" />
      <code value="{beats}/min"/>
    </valueQuantity>
    
    <effectiveDateTime value="1997-06-18"/>
    <status value="final"/>
    <reliability value="ok"/>
    <subject>
      <reference value="Patient/ID1291938"/>
    </subject>
    <encounter>
      <reference value="Encounter/ID768"/>
    </encounter>
    
  </Observation>
  
  </resource>
  <request>
    <method value="PUT"/>
    <url value="Observation/ID768-heartrate"/>
  </request>
</entry>
<entry>
  <resource>
    
    
  <Observation>
  <id value="ID768-respiratoryrate"/>
    <text>
      <status value="generated"/>
      <div xmlns="http://www.w3.org/1999/xhtml">1997-06-18: respiratory_rate = 18.0 {breaths}/min</div>
    </text>
    <code>
      <coding>
        <system value="http://loinc.org"/>
        <code value="9279-1"/>
        <display value="respiratory_rate"/>
      </coding>
    </code>
    <valueQuantity>
      <value value="18.0"/>
      <unit value="{breaths}/min"/>
      <system value="http://unitsofmeasure.org" />
      <code value="{breaths}/min"/>
    </valueQuantity>
    
    <effectiveDateTime value="1997-06-18"/>
    <status value="final"/>
    <reliability value="ok"/>
    <subject>
      <reference value="Patient/ID1291938"/>
    </subject>
    <encounter>
      <reference value="Encounter/ID768"/>
    </encounter>
    
  </Observation>
  
  </resource>
  <request>
    <method value="PUT"/>
    <url value="Observation/ID768-respiratoryrate"/>
  </request>
</entry>
<entry>
  <resource>
    
    
  <Observation>
  <id value="ID768-temperature"/>
    <text>
      <status value="generated"/>
      <div xmlns="http://www.w3.org/1999/xhtml">1997-06-18: temperature = 36.16667 Cel</div>
    </text>
    <code>
      <coding>
        <system value="http://loinc.org"/>
        <code value="8310-5"/>
        <display value="temperature"/>
      </coding>
    </code>
    <valueQuantity>
      <value value="36.16667"/>
      <unit value="Cel"/>
      <system value="http://unitsofmeasure.org" />
      <code value="Cel"/>
    </valueQuantity>
    
    <effectiveDateTime value="1997-06-18"/>
    <status value="final"/>
    <reliability value="ok"/>
    <subject>
      <reference value="Patient/ID1291938"/>
    </subject>
    <encounter>
      <reference value="Encounter/ID768"/>
    </encounter>
    
  </Observation>
  
  </resource>
  <request>
    <method value="PUT"/>
    <url value="Observation/ID768-temperature"/>
  </request>
</entry>
<entry>
  <resource>
    
    
  <Observation>
  <id value="ID768-weight"/>
    <text>
      <status value="generated"/>
      <div xmlns="http://www.w3.org/1999/xhtml">1997-06-18: weight = 98.52026 kg</div>
    </text>
    <code>
      <coding>
        <system value="http://loinc.org"/>
        <code value="3141-9"/>
        <display value="weight"/>
      </coding>
    </code>
    <valueQuantity>
      <value value="98.52026"/>
      <unit value="kg"/>
      <system value="http://unitsofmeasure.org" />
      <code value="kg"/>
    </valueQuantity>
    
    <effectiveDateTime value="1997-06-18"/>
    <status value="final"/>
    <reliability value="ok"/>
    <subject>
      <reference value="Patient/ID1291938"/>
    </subject>
    <encounter>
      <reference value="Encounter/ID768"/>
    </encounter>
    
  </Observation>
  
  </resource>
  <request>
    <method value="PUT"/>
    <url value="Observation/ID768-weight"/>
  </request>
</entry>
<entry>
  <resource>
    
    
  <Observation>
  <id value="ID768-bmi"/>
    <text>
      <status value="generated"/>
      <div xmlns="http://www.w3.org/1999/xhtml">1997-06-18: bmi = 32.6 kg/m2</div>
    </text>
    <code>
      <coding>
        <system value="http://loinc.org"/>
        <code value="39156-5"/>
        <display value="bmi"/>
      </coding>
    </code>
    <valueQuantity>
      <value value="32.6"/>
      <unit value="kg/m2"/>
      <system value="http://unitsofmeasure.org" />
      <code value="kg/m2"/>
    </valueQuantity>
    
    <effectiveDateTime value="1997-06-18"/>
    <status value="final"/>
    <reliability value="ok"/>
    <subject>
      <reference value="Patient/ID1291938"/>
    </subject>
    <encounter>
      <reference value="Encounter/ID768"/>
    </encounter>
    
  </Observation>
  
  </resource>
  <request>
    <method value="PUT"/>
    <url value="Observation/ID768-bmi"/>
  </request>
</entry>
<entry>
  <resource>
    
    
  <Observation>
  <id value="ID768-oxygensaturation"/>
    <text>
      <status value="generated"/>
      <div xmlns="http://www.w3.org/1999/xhtml">1997-06-18: oxygen_saturation = 96.0 %{HemoglobinSaturation}</div>
    </text>
    <code>
      <coding>
        <system value="http://loinc.org"/>
        <code value="2710-2"/>
        <display value="oxygen_saturation"/>
      </coding>
    </code>
    <valueQuantity>
      <value value="96.0"/>
      <unit value="%{HemoglobinSaturation}"/>
      <system value="http://unitsofmeasure.org" />
      <code value="%{HemoglobinSaturation}"/>
    </valueQuantity>
    
    <effectiveDateTime value="1997-06-18"/>
    <status value="final"/>
    <reliability value="ok"/>
    <subject>
      <reference value="Patient/ID1291938"/>
    </subject>
    <encounter>
      <reference value="Encounter/ID768"/>
    </encounter>
    
  </Observation>
  
  </resource>
  <request>
    <method value="PUT"/>
    <url value="Observation/ID768-oxygensaturation"/>
  </request>
</entry>
<entry>
  <resource>
    
    
  <Observation>
  <id value="ID769-height"/>
    <text>
      <status value="generated"/>
      <div xmlns="http://www.w3.org/1999/xhtml">1997-06-19: height = 174.244 cm</div>
    </text>
    <code>
      <coding>
        <system value="http://loinc.org"/>
        <code value="8302-2"/>
        <display value="height"/>
      </coding>
    </code>
    <valueQuantity>
      <value value="174.244"/>
      <unit value="cm"/>
      <system value="http://unitsofmeasure.org" />
      <code value="cm"/>
    </valueQuantity>
    
    <effectiveDateTime value="1997-06-19"/>
    <status value="final"/>
    <reliability value="ok"/>
    <subject>
      <reference value="Patient/ID1291938"/>
    </subject>
    <encounter>
      <reference value="Encounter/ID769"/>
    </encounter>
    
  </Observation>
  
  </resource>
  <request>
    <method value="PUT"/>
    <url value="Observation/ID769-height"/>
  </request>
</entry>
<entry>
  <resource>
    
    
  <Observation>
  <id value="ID769-heartrate"/>
    <text>
      <status value="generated"/>
      <div xmlns="http://www.w3.org/1999/xhtml">1997-06-19: heart_rate = 77.0 {beats}/min</div>
    </text>
    <code>
      <coding>
        <system value="http://loinc.org"/>
        <code value="8867-4"/>
        <display value="heart_rate"/>
      </coding>
    </code>
    <valueQuantity>
      <value value="77.0"/>
      <unit value="{beats}/min"/>
      <system value="http://unitsofmeasure.org" />
      <code value="{beats}/min"/>
    </valueQuantity>
    
    <effectiveDateTime value="1997-06-19"/>
    <status value="final"/>
    <reliability value="ok"/>
    <subject>
      <reference value="Patient/ID1291938"/>
    </subject>
    <encounter>
      <reference value="Encounter/ID769"/>
    </encounter>
    
  </Observation>
  
  </resource>
  <request>
    <method value="PUT"/>
    <url value="Observation/ID769-heartrate"/>
  </request>
</entry>
<entry>
  <resource>
    
    
  <Observation>
  <id value="ID769-respiratoryrate"/>
    <text>
      <status value="generated"/>
      <div xmlns="http://www.w3.org/1999/xhtml">1997-06-19: respiratory_rate = 18.0 {breaths}/min</div>
    </text>
    <code>
      <coding>
        <system value="http://loinc.org"/>
        <code value="9279-1"/>
        <display value="respiratory_rate"/>
      </coding>
    </code>
    <valueQuantity>
      <value value="18.0"/>
      <unit value="{breaths}/min"/>
      <system value="http://unitsofmeasure.org" />
      <code value="{breaths}/min"/>
    </valueQuantity>
    
    <effectiveDateTime value="1997-06-19"/>
    <status value="final"/>
    <reliability value="ok"/>
    <subject>
      <reference value="Patient/ID1291938"/>
    </subject>
    <encounter>
      <reference value="Encounter/ID769"/>
    </encounter>
    
  </Observation>
  
  </resource>
  <request>
    <method value="PUT"/>
    <url value="Observation/ID769-respiratoryrate"/>
  </request>
</entry>
<entry>
  <resource>
    
    
  <Observation>
  <id value="ID769-temperature"/>
    <text>
      <status value="generated"/>
      <div xmlns="http://www.w3.org/1999/xhtml">1997-06-19: temperature = 36.16667 Cel</div>
    </text>
    <code>
      <coding>
        <system value="http://loinc.org"/>
        <code value="8310-5"/>
        <display value="temperature"/>
      </coding>
    </code>
    <valueQuantity>
      <value value="36.16667"/>
      <unit value="Cel"/>
      <system value="http://unitsofmeasure.org" />
      <code value="Cel"/>
    </valueQuantity>
    
    <effectiveDateTime value="1997-06-19"/>
    <status value="final"/>
    <reliability value="ok"/>
    <subject>
      <reference value="Patient/ID1291938"/>
    </subject>
    <encounter>
      <reference value="Encounter/ID769"/>
    </encounter>
    
  </Observation>
  
  </resource>
  <request>
    <method value="PUT"/>
    <url value="Observation/ID769-temperature"/>
  </request>
</entry>
<entry>
  <resource>
    
    
  <Observation>
  <id value="ID769-weight"/>
    <text>
      <status value="generated"/>
      <div xmlns="http://www.w3.org/1999/xhtml">1997-06-19: weight = 102.10364 kg</div>
    </text>
    <code>
      <coding>
        <system value="http://loinc.org"/>
        <code value="3141-9"/>
        <display value="weight"/>
      </coding>
    </code>
    <valueQuantity>
      <value value="102.10364"/>
      <unit value="kg"/>
      <system value="http://unitsofmeasure.org" />
      <code value="kg"/>
    </valueQuantity>
    
    <effectiveDateTime value="1997-06-19"/>
    <status value="final"/>
    <reliability value="ok"/>
    <subject>
      <reference value="Patient/ID1291938"/>
    </subject>
    <encounter>
      <reference value="Encounter/ID769"/>
    </encounter>
    
  </Observation>
  
  </resource>
  <request>
    <method value="PUT"/>
    <url value="Observation/ID769-weight"/>
  </request>
</entry>
<entry>
  <resource>
    
    
  <Observation>
  <id value="ID769-bmi"/>
    <text>
      <status value="generated"/>
      <div xmlns="http://www.w3.org/1999/xhtml">1997-06-19: bmi = 33.9 kg/m2</div>
    </text>
    <code>
      <coding>
        <system value="http://loinc.org"/>
        <code value="39156-5"/>
        <display value="bmi"/>
      </coding>
    </code>
    <valueQuantity>
      <value value="33.9"/>
      <unit value="kg/m2"/>
      <system value="http://unitsofmeasure.org" />
      <code value="kg/m2"/>
    </valueQuantity>
    
    <effectiveDateTime value="1997-06-19"/>
    <status value="final"/>
    <reliability value="ok"/>
    <subject>
      <reference value="Patient/ID1291938"/>
    </subject>
    <encounter>
      <reference value="Encounter/ID769"/>
    </encounter>
    
  </Observation>
  
  </resource>
  <request>
    <method value="PUT"/>
    <url value="Observation/ID769-bmi"/>
  </request>
</entry>
<entry>
  <resource>
    
    
  <Observation>
  <id value="ID769-oxygensaturation"/>
    <text>
      <status value="generated"/>
      <div xmlns="http://www.w3.org/1999/xhtml">1997-06-19: oxygen_saturation = 96.0 %{HemoglobinSaturation}</div>
    </text>
    <code>
      <coding>
        <system value="http://loinc.org"/>
        <code value="2710-2"/>
        <display value="oxygen_saturation"/>
      </coding>
    </code>
    <valueQuantity>
      <value value="96.0"/>
      <unit value="%{HemoglobinSaturation}"/>
      <system value="http://unitsofmeasure.org" />
      <code value="%{HemoglobinSaturation}"/>
    </valueQuantity>
    
    <effectiveDateTime value="1997-06-19"/>
    <status value="final"/>
    <reliability value="ok"/>
    <subject>
      <reference value="Patient/ID1291938"/>
    </subject>
    <encounter>
      <reference value="Encounter/ID769"/>
    </encounter>
    
  </Observation>
  
  </resource>
  <request>
    <method value="PUT"/>
    <url value="Observation/ID769-oxygensaturation"/>
  </request>
</entry>
<entry>
  <resource>
    
    
  <Observation>
  <id value="ID770-height"/>
    <text>
      <status value="generated"/>
      <div xmlns="http://www.w3.org/1999/xhtml">1997-06-20: height = 173.482 cm</div>
    </text>
    <code>
      <coding>
        <system value="http://loinc.org"/>
        <code value="8302-2"/>
        <display value="height"/>
      </coding>
    </code>
    <valueQuantity>
      <value value="173.482"/>
      <unit value="cm"/>
      <system value="http://unitsofmeasure.org" />
      <code value="cm"/>
    </valueQuantity>
    
    <effectiveDateTime value="1997-06-20"/>
    <status value="final"/>
    <reliability value="ok"/>
    <subject>
      <reference value="Patient/ID1291938"/>
    </subject>
    <encounter>
      <reference value="Encounter/ID770"/>
    </encounter>
    
  </Observation>
  
  </resource>
  <request>
    <method value="PUT"/>
    <url value="Observation/ID770-height"/>
  </request>
</entry>
<entry>
  <resource>
    
    
  <Observation>
  <id value="ID770-heartrate"/>
    <text>
      <status value="generated"/>
      <div xmlns="http://www.w3.org/1999/xhtml">1997-06-20: heart_rate = 75.0 {beats}/min</div>
    </text>
    <code>
      <coding>
        <system value="http://loinc.org"/>
        <code value="8867-4"/>
        <display value="heart_rate"/>
      </coding>
    </code>
    <valueQuantity>
      <value value="75.0"/>
      <unit value="{beats}/min"/>
      <system value="http://unitsofmeasure.org" />
      <code value="{beats}/min"/>
    </valueQuantity>
    
    <effectiveDateTime value="1997-06-20"/>
    <status value="final"/>
    <reliability value="ok"/>
    <subject>
      <reference value="Patient/ID1291938"/>
    </subject>
    <encounter>
      <reference value="Encounter/ID770"/>
    </encounter>
    
  </Observation>
  
  </resource>
  <request>
    <method value="PUT"/>
    <url value="Observation/ID770-heartrate"/>
  </request>
</entry>
<entry>
  <resource>
    
    
  <Observation>
  <id value="ID770-respiratoryrate"/>
    <text>
      <status value="generated"/>
      <div xmlns="http://www.w3.org/1999/xhtml">1997-06-20: respiratory_rate = 18.0 {breaths}/min</div>
    </text>
    <code>
      <coding>
        <system value="http://loinc.org"/>
        <code value="9279-1"/>
        <display value="respiratory_rate"/>
      </coding>
    </code>
    <valueQuantity>
      <value value="18.0"/>
      <unit value="{breaths}/min"/>
      <system value="http://unitsofmeasure.org" />
      <code value="{breaths}/min"/>
    </valueQuantity>
    
    <effectiveDateTime value="1997-06-20"/>
    <status value="final"/>
    <reliability value="ok"/>
    <subject>
      <reference value="Patient/ID1291938"/>
    </subject>
    <encounter>
      <reference value="Encounter/ID770"/>
    </encounter>
    
  </Observation>
  
  </resource>
  <request>
    <method value="PUT"/>
    <url value="Observation/ID770-respiratoryrate"/>
  </request>
</entry>
<entry>
  <resource>
    
    
  <Observation>
  <id value="ID770-temperature"/>
    <text>
      <status value="generated"/>
      <div xmlns="http://www.w3.org/1999/xhtml">1997-06-20: temperature = 36.11111 Cel</div>
    </text>
    <code>
      <coding>
        <system value="http://loinc.org"/>
        <code value="8310-5"/>
        <display value="temperature"/>
      </coding>
    </code>
    <valueQuantity>
      <value value="36.11111"/>
      <unit value="Cel"/>
      <system value="http://unitsofmeasure.org" />
      <code value="Cel"/>
    </valueQuantity>
    
    <effectiveDateTime value="1997-06-20"/>
    <status value="final"/>
    <reliability value="ok"/>
    <subject>
      <reference value="Patient/ID1291938"/>
    </subject>
    <encounter>
      <reference value="Encounter/ID770"/>
    </encounter>
    
  </Observation>
  
  </resource>
  <request>
    <method value="PUT"/>
    <url value="Observation/ID770-temperature"/>
  </request>
</entry>
<entry>
  <resource>
    
    
  <Observation>
  <id value="ID770-weight"/>
    <text>
      <status value="generated"/>
      <div xmlns="http://www.w3.org/1999/xhtml">1997-06-20: weight = 98.61098 kg</div>
    </text>
    <code>
      <coding>
        <system value="http://loinc.org"/>
        <code value="3141-9"/>
        <display value="weight"/>
      </coding>
    </code>
    <valueQuantity>
      <value value="98.61098"/>
      <unit value="kg"/>
      <system value="http://unitsofmeasure.org" />
      <code value="kg"/>
    </valueQuantity>
    
    <effectiveDateTime value="1997-06-20"/>
    <status value="final"/>
    <reliability value="ok"/>
    <subject>
      <reference value="Patient/ID1291938"/>
    </subject>
    <encounter>
      <reference value="Encounter/ID770"/>
    </encounter>
    
  </Observation>
  
  </resource>
  <request>
    <method value="PUT"/>
    <url value="Observation/ID770-weight"/>
  </request>
</entry>
<entry>
  <resource>
    
    
  <Observation>
  <id value="ID770-bmi"/>
    <text>
      <status value="generated"/>
      <div xmlns="http://www.w3.org/1999/xhtml">1997-06-20: bmi = 32.7 kg/m2</div>
    </text>
    <code>
      <coding>
        <system value="http://loinc.org"/>
        <code value="39156-5"/>
        <display value="bmi"/>
      </coding>
    </code>
    <valueQuantity>
      <value value="32.7"/>
      <unit value="kg/m2"/>
      <system value="http://unitsofmeasure.org" />
      <code value="kg/m2"/>
    </valueQuantity>
    
    <effectiveDateTime value="1997-06-20"/>
    <status value="final"/>
    <reliability value="ok"/>
    <subject>
      <reference value="Patient/ID1291938"/>
    </subject>
    <encounter>
      <reference value="Encounter/ID770"/>
    </encounter>
    
  </Observation>
  
  </resource>
  <request>
    <method value="PUT"/>
    <url value="Observation/ID770-bmi"/>
  </request>
</entry>
<entry>
  <resource>
    
    
  <Observation>
  <id value="ID770-oxygensaturation"/>
    <text>
      <status value="generated"/>
      <div xmlns="http://www.w3.org/1999/xhtml">1997-06-20: oxygen_saturation = 96.0 %{HemoglobinSaturation}</div>
    </text>
    <code>
      <coding>
        <system value="http://loinc.org"/>
        <code value="2710-2"/>
        <display value="oxygen_saturation"/>
      </coding>
    </code>
    <valueQuantity>
      <value value="96.0"/>
      <unit value="%{HemoglobinSaturation}"/>
      <system value="http://unitsofmeasure.org" />
      <code value="%{HemoglobinSaturation}"/>
    </valueQuantity>
    
    <effectiveDateTime value="1997-06-20"/>
    <status value="final"/>
    <reliability value="ok"/>
    <subject>
      <reference value="Patient/ID1291938"/>
    </subject>
    <encounter>
      <reference value="Encounter/ID770"/>
    </encounter>
    
  </Observation>
  
  </resource>
  <request>
    <method value="PUT"/>
    <url value="Observation/ID770-oxygensaturation"/>
  </request>
</entry>
<entry>
  <resource>
    
    
  <Observation>
  <id value="ID771-height"/>
    <text>
      <status value="generated"/>
      <div xmlns="http://www.w3.org/1999/xhtml">1997-10-27: height = 173.736 cm</div>
    </text>
    <code>
      <coding>
        <system value="http://loinc.org"/>
        <code value="8302-2"/>
        <display value="height"/>
      </coding>
    </code>
    <valueQuantity>
      <value value="173.736"/>
      <unit value="cm"/>
      <system value="http://unitsofmeasure.org" />
      <code value="cm"/>
    </valueQuantity>
    
    <effectiveDateTime value="1997-10-27"/>
    <status value="final"/>
    <reliability value="ok"/>
    <subject>
      <reference value="Patient/ID1291938"/>
    </subject>
    <encounter>
      <reference value="Encounter/ID771"/>
    </encounter>
    
  </Observation>
  
  </resource>
  <request>
    <method value="PUT"/>
    <url value="Observation/ID771-height"/>
  </request>
</entry>
<entry>
  <resource>
    
    
  <Observation>
  <id value="ID771-heartrate"/>
    <text>
      <status value="generated"/>
      <div xmlns="http://www.w3.org/1999/xhtml">1997-10-27: heart_rate = 76.0 {beats}/min</div>
    </text>
    <code>
      <coding>
        <system value="http://loinc.org"/>
        <code value="8867-4"/>
        <display value="heart_rate"/>
      </coding>
    </code>
    <valueQuantity>
      <value value="76.0"/>
      <unit value="{beats}/min"/>
      <system value="http://unitsofmeasure.org" />
      <code value="{beats}/min"/>
    </valueQuantity>
    
    <effectiveDateTime value="1997-10-27"/>
    <status value="final"/>
    <reliability value="ok"/>
    <subject>
      <reference value="Patient/ID1291938"/>
    </subject>
    <encounter>
      <reference value="Encounter/ID771"/>
    </encounter>
    
  </Observation>
  
  </resource>
  <request>
    <method value="PUT"/>
    <url value="Observation/ID771-heartrate"/>
  </request>
</entry>
<entry>
  <resource>
    
    
  <Observation>
  <id value="ID771-respiratoryrate"/>
    <text>
      <status value="generated"/>
      <div xmlns="http://www.w3.org/1999/xhtml">1997-10-27: respiratory_rate = 18.0 {breaths}/min</div>
    </text>
    <code>
      <coding>
        <system value="http://loinc.org"/>
        <code value="9279-1"/>
        <display value="respiratory_rate"/>
      </coding>
    </code>
    <valueQuantity>
      <value value="18.0"/>
      <unit value="{breaths}/min"/>
      <system value="http://unitsofmeasure.org" />
      <code value="{breaths}/min"/>
    </valueQuantity>
    
    <effectiveDateTime value="1997-10-27"/>
    <status value="final"/>
    <reliability value="ok"/>
    <subject>
      <reference value="Patient/ID1291938"/>
    </subject>
    <encounter>
      <reference value="Encounter/ID771"/>
    </encounter>
    
  </Observation>
  
  </resource>
  <request>
    <method value="PUT"/>
    <url value="Observation/ID771-respiratoryrate"/>
  </request>
</entry>
<entry>
  <resource>
    
    
  <Observation>
  <id value="ID771-temperature"/>
    <text>
      <status value="generated"/>
      <div xmlns="http://www.w3.org/1999/xhtml">1997-10-27: temperature = 36.11111 Cel</div>
    </text>
    <code>
      <coding>
        <system value="http://loinc.org"/>
        <code value="8310-5"/>
        <display value="temperature"/>
      </coding>
    </code>
    <valueQuantity>
      <value value="36.11111"/>
      <unit value="Cel"/>
      <system value="http://unitsofmeasure.org" />
      <code value="Cel"/>
    </valueQuantity>
    
    <effectiveDateTime value="1997-10-27"/>
    <status value="final"/>
    <reliability value="ok"/>
    <subject>
      <reference value="Patient/ID1291938"/>
    </subject>
    <encounter>
      <reference value="Encounter/ID771"/>
    </encounter>
    
  </Observation>
  
  </resource>
  <request>
    <method value="PUT"/>
    <url value="Observation/ID771-temperature"/>
  </request>
</entry>
<entry>
  <resource>
    
    
  <Observation>
  <id value="ID771-weight"/>
    <text>
      <status value="generated"/>
      <div xmlns="http://www.w3.org/1999/xhtml">1997-10-27: weight = 99.74496 kg</div>
    </text>
    <code>
      <coding>
        <system value="http://loinc.org"/>
        <code value="3141-9"/>
        <display value="weight"/>
      </coding>
    </code>
    <valueQuantity>
      <value value="99.74496"/>
      <unit value="kg"/>
      <system value="http://unitsofmeasure.org" />
      <code value="kg"/>
    </valueQuantity>
    
    <effectiveDateTime value="1997-10-27"/>
    <status value="final"/>
    <reliability value="ok"/>
    <subject>
      <reference value="Patient/ID1291938"/>
    </subject>
    <encounter>
      <reference value="Encounter/ID771"/>
    </encounter>
    
  </Observation>
  
  </resource>
  <request>
    <method value="PUT"/>
    <url value="Observation/ID771-weight"/>
  </request>
</entry>
<entry>
  <resource>
    
    
  <Observation>
  <id value="ID771-bmi"/>
    <text>
      <status value="generated"/>
      <div xmlns="http://www.w3.org/1999/xhtml">1997-10-27: bmi = 33.0 kg/m2</div>
    </text>
    <code>
      <coding>
        <system value="http://loinc.org"/>
        <code value="39156-5"/>
        <display value="bmi"/>
      </coding>
    </code>
    <valueQuantity>
      <value value="33.0"/>
      <unit value="kg/m2"/>
      <system value="http://unitsofmeasure.org" />
      <code value="kg/m2"/>
    </valueQuantity>
    
    <effectiveDateTime value="1997-10-27"/>
    <status value="final"/>
    <reliability value="ok"/>
    <subject>
      <reference value="Patient/ID1291938"/>
    </subject>
    <encounter>
      <reference value="Encounter/ID771"/>
    </encounter>
    
  </Observation>
  
  </resource>
  <request>
    <method value="PUT"/>
    <url value="Observation/ID771-bmi"/>
  </request>
</entry>
<entry>
  <resource>
    
    
  <Observation>
  <id value="ID771-oxygensaturation"/>
    <text>
      <status value="generated"/>
      <div xmlns="http://www.w3.org/1999/xhtml">1997-10-27: oxygen_saturation = 96.0 %{HemoglobinSaturation}</div>
    </text>
    <code>
      <coding>
        <system value="http://loinc.org"/>
        <code value="2710-2"/>
        <display value="oxygen_saturation"/>
      </coding>
    </code>
    <valueQuantity>
      <value value="96.0"/>
      <unit value="%{HemoglobinSaturation}"/>
      <system value="http://unitsofmeasure.org" />
      <code value="%{HemoglobinSaturation}"/>
    </valueQuantity>
    
    <effectiveDateTime value="1997-10-27"/>
    <status value="final"/>
    <reliability value="ok"/>
    <subject>
      <reference value="Patient/ID1291938"/>
    </subject>
    <encounter>
      <reference value="Encounter/ID771"/>
    </encounter>
    
  </Observation>
  
  </resource>
  <request>
    <method value="PUT"/>
    <url value="Observation/ID771-oxygensaturation"/>
  </request>
</entry>
<entry>
  <resource>
    
    
  <Observation>
  <id value="ID772-height"/>
    <text>
      <status value="generated"/>
      <div xmlns="http://www.w3.org/1999/xhtml">1997-10-28: height = 173.99 cm</div>
    </text>
    <code>
      <coding>
        <system value="http://loinc.org"/>
        <code value="8302-2"/>
        <display value="height"/>
      </coding>
    </code>
    <valueQuantity>
      <value value="173.99"/>
      <unit value="cm"/>
      <system value="http://unitsofmeasure.org" />
      <code value="cm"/>
    </valueQuantity>
    
    <effectiveDateTime value="1997-10-28"/>
    <status value="final"/>
    <reliability value="ok"/>
    <subject>
      <reference value="Patient/ID1291938"/>
    </subject>
    <encounter>
      <reference value="Encounter/ID772"/>
    </encounter>
    
  </Observation>
  
  </resource>
  <request>
    <method value="PUT"/>
    <url value="Observation/ID772-height"/>
  </request>
</entry>
<entry>
  <resource>
    
    
  <Observation>
  <id value="ID772-heartrate"/>
    <text>
      <status value="generated"/>
      <div xmlns="http://www.w3.org/1999/xhtml">1997-10-28: heart_rate = 76.0 {beats}/min</div>
    </text>
    <code>
      <coding>
        <system value="http://loinc.org"/>
        <code value="8867-4"/>
        <display value="heart_rate"/>
      </coding>
    </code>
    <valueQuantity>
      <value value="76.0"/>
      <unit value="{beats}/min"/>
      <system value="http://unitsofmeasure.org" />
      <code value="{beats}/min"/>
    </valueQuantity>
    
    <effectiveDateTime value="1997-10-28"/>
    <status value="final"/>
    <reliability value="ok"/>
    <subject>
      <reference value="Patient/ID1291938"/>
    </subject>
    <encounter>
      <reference value="Encounter/ID772"/>
    </encounter>
    
  </Observation>
  
  </resource>
  <request>
    <method value="PUT"/>
    <url value="Observation/ID772-heartrate"/>
  </request>
</entry>
<entry>
  <resource>
    
    
  <Observation>
  <id value="ID772-respiratoryrate"/>
    <text>
      <status value="generated"/>
      <div xmlns="http://www.w3.org/1999/xhtml">1997-10-28: respiratory_rate = 18.0 {breaths}/min</div>
    </text>
    <code>
      <coding>
        <system value="http://loinc.org"/>
        <code value="9279-1"/>
        <display value="respiratory_rate"/>
      </coding>
    </code>
    <valueQuantity>
      <value value="18.0"/>
      <unit value="{breaths}/min"/>
      <system value="http://unitsofmeasure.org" />
      <code value="{breaths}/min"/>
    </valueQuantity>
    
    <effectiveDateTime value="1997-10-28"/>
    <status value="final"/>
    <reliability value="ok"/>
    <subject>
      <reference value="Patient/ID1291938"/>
    </subject>
    <encounter>
      <reference value="Encounter/ID772"/>
    </encounter>
    
  </Observation>
  
  </resource>
  <request>
    <method value="PUT"/>
    <url value="Observation/ID772-respiratoryrate"/>
  </request>
</entry>
<entry>
  <resource>
    
    
  <Observation>
  <id value="ID772-temperature"/>
    <text>
      <status value="generated"/>
      <div xmlns="http://www.w3.org/1999/xhtml">1997-10-28: temperature = 36.16667 Cel</div>
    </text>
    <code>
      <coding>
        <system value="http://loinc.org"/>
        <code value="8310-5"/>
        <display value="temperature"/>
      </coding>
    </code>
    <valueQuantity>
      <value value="36.16667"/>
      <unit value="Cel"/>
      <system value="http://unitsofmeasure.org" />
      <code value="Cel"/>
    </valueQuantity>
    
    <effectiveDateTime value="1997-10-28"/>
    <status value="final"/>
    <reliability value="ok"/>
    <subject>
      <reference value="Patient/ID1291938"/>
    </subject>
    <encounter>
      <reference value="Encounter/ID772"/>
    </encounter>
    
  </Observation>
  
  </resource>
  <request>
    <method value="PUT"/>
    <url value="Observation/ID772-temperature"/>
  </request>
</entry>
<entry>
  <resource>
    
    
  <Observation>
  <id value="ID772-weight"/>
    <text>
      <status value="generated"/>
      <div xmlns="http://www.w3.org/1999/xhtml">1997-10-28: weight = 97.20484 kg</div>
    </text>
    <code>
      <coding>
        <system value="http://loinc.org"/>
        <code value="3141-9"/>
        <display value="weight"/>
      </coding>
    </code>
    <valueQuantity>
      <value value="97.20484"/>
      <unit value="kg"/>
      <system value="http://unitsofmeasure.org" />
      <code value="kg"/>
    </valueQuantity>
    
    <effectiveDateTime value="1997-10-28"/>
    <status value="final"/>
    <reliability value="ok"/>
    <subject>
      <reference value="Patient/ID1291938"/>
    </subject>
    <encounter>
      <reference value="Encounter/ID772"/>
    </encounter>
    
  </Observation>
  
  </resource>
  <request>
    <method value="PUT"/>
    <url value="Observation/ID772-weight"/>
  </request>
</entry>
<entry>
  <resource>
    
    
  <Observation>
  <id value="ID772-bmi"/>
    <text>
      <status value="generated"/>
      <div xmlns="http://www.w3.org/1999/xhtml">1997-10-28: bmi = 32.1 kg/m2</div>
    </text>
    <code>
      <coding>
        <system value="http://loinc.org"/>
        <code value="39156-5"/>
        <display value="bmi"/>
      </coding>
    </code>
    <valueQuantity>
      <value value="32.1"/>
      <unit value="kg/m2"/>
      <system value="http://unitsofmeasure.org" />
      <code value="kg/m2"/>
    </valueQuantity>
    
    <effectiveDateTime value="1997-10-28"/>
    <status value="final"/>
    <reliability value="ok"/>
    <subject>
      <reference value="Patient/ID1291938"/>
    </subject>
    <encounter>
      <reference value="Encounter/ID772"/>
    </encounter>
    
  </Observation>
  
  </resource>
  <request>
    <method value="PUT"/>
    <url value="Observation/ID772-bmi"/>
  </request>
</entry>
<entry>
  <resource>
    
    
  <Observation>
  <id value="ID772-oxygensaturation"/>
    <text>
      <status value="generated"/>
      <div xmlns="http://www.w3.org/1999/xhtml">1997-10-28: oxygen_saturation = 96.0 %{HemoglobinSaturation}</div>
    </text>
    <code>
      <coding>
        <system value="http://loinc.org"/>
        <code value="2710-2"/>
        <display value="oxygen_saturation"/>
      </coding>
    </code>
    <valueQuantity>
      <value value="96.0"/>
      <unit value="%{HemoglobinSaturation}"/>
      <system value="http://unitsofmeasure.org" />
      <code value="%{HemoglobinSaturation}"/>
    </valueQuantity>
    
    <effectiveDateTime value="1997-10-28"/>
    <status value="final"/>
    <reliability value="ok"/>
    <subject>
      <reference value="Patient/ID1291938"/>
    </subject>
    <encounter>
      <reference value="Encounter/ID772"/>
    </encounter>
    
  </Observation>
  
  </resource>
  <request>
    <method value="PUT"/>
    <url value="Observation/ID772-oxygensaturation"/>
  </request>
</entry>
<entry>
  <resource>
    
    
  <Observation>
  <id value="ID773-height"/>
    <text>
      <status value="generated"/>
      <div xmlns="http://www.w3.org/1999/xhtml">1997-10-29: height = 173.482 cm</div>
    </text>
    <code>
      <coding>
        <system value="http://loinc.org"/>
        <code value="8302-2"/>
        <display value="height"/>
      </coding>
    </code>
    <valueQuantity>
      <value value="173.482"/>
      <unit value="cm"/>
      <system value="http://unitsofmeasure.org" />
      <code value="cm"/>
    </valueQuantity>
    
    <effectiveDateTime value="1997-10-29"/>
    <status value="final"/>
    <reliability value="ok"/>
    <subject>
      <reference value="Patient/ID1291938"/>
    </subject>
    <encounter>
      <reference value="Encounter/ID773"/>
    </encounter>
    
  </Observation>
  
  </resource>
  <request>
    <method value="PUT"/>
    <url value="Observation/ID773-height"/>
  </request>
</entry>
<entry>
  <resource>
    
    
  <Observation>
  <id value="ID773-heartrate"/>
    <text>
      <status value="generated"/>
      <div xmlns="http://www.w3.org/1999/xhtml">1997-10-29: heart_rate = 76.0 {beats}/min</div>
    </text>
    <code>
      <coding>
        <system value="http://loinc.org"/>
        <code value="8867-4"/>
        <display value="heart_rate"/>
      </coding>
    </code>
    <valueQuantity>
      <value value="76.0"/>
      <unit value="{beats}/min"/>
      <system value="http://unitsofmeasure.org" />
      <code value="{beats}/min"/>
    </valueQuantity>
    
    <effectiveDateTime value="1997-10-29"/>
    <status value="final"/>
    <reliability value="ok"/>
    <subject>
      <reference value="Patient/ID1291938"/>
    </subject>
    <encounter>
      <reference value="Encounter/ID773"/>
    </encounter>
    
  </Observation>
  
  </resource>
  <request>
    <method value="PUT"/>
    <url value="Observation/ID773-heartrate"/>
  </request>
</entry>
<entry>
  <resource>
    
    
  <Observation>
  <id value="ID773-respiratoryrate"/>
    <text>
      <status value="generated"/>
      <div xmlns="http://www.w3.org/1999/xhtml">1997-10-29: respiratory_rate = 18.0 {breaths}/min</div>
    </text>
    <code>
      <coding>
        <system value="http://loinc.org"/>
        <code value="9279-1"/>
        <display value="respiratory_rate"/>
      </coding>
    </code>
    <valueQuantity>
      <value value="18.0"/>
      <unit value="{breaths}/min"/>
      <system value="http://unitsofmeasure.org" />
      <code value="{breaths}/min"/>
    </valueQuantity>
    
    <effectiveDateTime value="1997-10-29"/>
    <status value="final"/>
    <reliability value="ok"/>
    <subject>
      <reference value="Patient/ID1291938"/>
    </subject>
    <encounter>
      <reference value="Encounter/ID773"/>
    </encounter>
    
  </Observation>
  
  </resource>
  <request>
    <method value="PUT"/>
    <url value="Observation/ID773-respiratoryrate"/>
  </request>
</entry>
<entry>
  <resource>
    
    
  <Observation>
  <id value="ID773-temperature"/>
    <text>
      <status value="generated"/>
      <div xmlns="http://www.w3.org/1999/xhtml">1997-10-29: temperature = 36.11111 Cel</div>
    </text>
    <code>
      <coding>
        <system value="http://loinc.org"/>
        <code value="8310-5"/>
        <display value="temperature"/>
      </coding>
    </code>
    <valueQuantity>
      <value value="36.11111"/>
      <unit value="Cel"/>
      <system value="http://unitsofmeasure.org" />
      <code value="Cel"/>
    </valueQuantity>
    
    <effectiveDateTime value="1997-10-29"/>
    <status value="final"/>
    <reliability value="ok"/>
    <subject>
      <reference value="Patient/ID1291938"/>
    </subject>
    <encounter>
      <reference value="Encounter/ID773"/>
    </encounter>
    
  </Observation>
  
  </resource>
  <request>
    <method value="PUT"/>
    <url value="Observation/ID773-temperature"/>
  </request>
</entry>
<entry>
  <resource>
    
    
  <Observation>
  <id value="ID773-weight"/>
    <text>
      <status value="generated"/>
      <div xmlns="http://www.w3.org/1999/xhtml">1997-10-29: weight = 96.4791 kg</div>
    </text>
    <code>
      <coding>
        <system value="http://loinc.org"/>
        <code value="3141-9"/>
        <display value="weight"/>
      </coding>
    </code>
    <valueQuantity>
      <value value="96.4791"/>
      <unit value="kg"/>
      <system value="http://unitsofmeasure.org" />
      <code value="kg"/>
    </valueQuantity>
    
    <effectiveDateTime value="1997-10-29"/>
    <status value="final"/>
    <reliability value="ok"/>
    <subject>
      <reference value="Patient/ID1291938"/>
    </subject>
    <encounter>
      <reference value="Encounter/ID773"/>
    </encounter>
    
  </Observation>
  
  </resource>
  <request>
    <method value="PUT"/>
    <url value="Observation/ID773-weight"/>
  </request>
</entry>
<entry>
  <resource>
    
    
  <Observation>
  <id value="ID773-bmi"/>
    <text>
      <status value="generated"/>
      <div xmlns="http://www.w3.org/1999/xhtml">1997-10-29: bmi = 32.0 kg/m2</div>
    </text>
    <code>
      <coding>
        <system value="http://loinc.org"/>
        <code value="39156-5"/>
        <display value="bmi"/>
      </coding>
    </code>
    <valueQuantity>
      <value value="32.0"/>
      <unit value="kg/m2"/>
      <system value="http://unitsofmeasure.org" />
      <code value="kg/m2"/>
    </valueQuantity>
    
    <effectiveDateTime value="1997-10-29"/>
    <status value="final"/>
    <reliability value="ok"/>
    <subject>
      <reference value="Patient/ID1291938"/>
    </subject>
    <encounter>
      <reference value="Encounter/ID773"/>
    </encounter>
    
  </Observation>
  
  </resource>
  <request>
    <method value="PUT"/>
    <url value="Observation/ID773-bmi"/>
  </request>
</entry>
<entry>
  <resource>
    
    
  <Observation>
  <id value="ID773-oxygensaturation"/>
    <text>
      <status value="generated"/>
      <div xmlns="http://www.w3.org/1999/xhtml">1997-10-29: oxygen_saturation = 96.0 %{HemoglobinSaturation}</div>
    </text>
    <code>
      <coding>
        <system value="http://loinc.org"/>
        <code value="2710-2"/>
        <display value="oxygen_saturation"/>
      </coding>
    </code>
    <valueQuantity>
      <value value="96.0"/>
      <unit value="%{HemoglobinSaturation}"/>
      <system value="http://unitsofmeasure.org" />
      <code value="%{HemoglobinSaturation}"/>
    </valueQuantity>
    
    <effectiveDateTime value="1997-10-29"/>
    <status value="final"/>
    <reliability value="ok"/>
    <subject>
      <reference value="Patient/ID1291938"/>
    </subject>
    <encounter>
      <reference value="Encounter/ID773"/>
    </encounter>
    
  </Observation>
  
  </resource>
  <request>
    <method value="PUT"/>
    <url value="Observation/ID773-oxygensaturation"/>
  </request>
</entry>
<entry>
  <resource>
    
    
  <Observation>
  <id value="ID774-height"/>
    <text>
      <status value="generated"/>
      <div xmlns="http://www.w3.org/1999/xhtml">1999-05-27: height = 174.498 cm</div>
    </text>
    <code>
      <coding>
        <system value="http://loinc.org"/>
        <code value="8302-2"/>
        <display value="height"/>
      </coding>
    </code>
    <valueQuantity>
      <value value="174.498"/>
      <unit value="cm"/>
      <system value="http://unitsofmeasure.org" />
      <code value="cm"/>
    </valueQuantity>
    
    <effectiveDateTime value="1999-05-27"/>
    <status value="final"/>
    <reliability value="ok"/>
    <subject>
      <reference value="Patient/ID1291938"/>
    </subject>
    <encounter>
      <reference value="Encounter/ID774"/>
    </encounter>
    
  </Observation>
  
  </resource>
  <request>
    <method value="PUT"/>
    <url value="Observation/ID774-height"/>
  </request>
</entry>
<entry>
  <resource>
    
    
  <Observation>
  <id value="ID774-heartrate"/>
    <text>
      <status value="generated"/>
      <div xmlns="http://www.w3.org/1999/xhtml">1999-05-27: heart_rate = 75.0 {beats}/min</div>
    </text>
    <code>
      <coding>
        <system value="http://loinc.org"/>
        <code value="8867-4"/>
        <display value="heart_rate"/>
      </coding>
    </code>
    <valueQuantity>
      <value value="75.0"/>
      <unit value="{beats}/min"/>
      <system value="http://unitsofmeasure.org" />
      <code value="{beats}/min"/>
    </valueQuantity>
    
    <effectiveDateTime value="1999-05-27"/>
    <status value="final"/>
    <reliability value="ok"/>
    <subject>
      <reference value="Patient/ID1291938"/>
    </subject>
    <encounter>
      <reference value="Encounter/ID774"/>
    </encounter>
    
  </Observation>
  
  </resource>
  <request>
    <method value="PUT"/>
    <url value="Observation/ID774-heartrate"/>
  </request>
</entry>
<entry>
  <resource>
    
    
  <Observation>
  <id value="ID774-respiratoryrate"/>
    <text>
      <status value="generated"/>
      <div xmlns="http://www.w3.org/1999/xhtml">1999-05-27: respiratory_rate = 18.0 {breaths}/min</div>
    </text>
    <code>
      <coding>
        <system value="http://loinc.org"/>
        <code value="9279-1"/>
        <display value="respiratory_rate"/>
      </coding>
    </code>
    <valueQuantity>
      <value value="18.0"/>
      <unit value="{breaths}/min"/>
      <system value="http://unitsofmeasure.org" />
      <code value="{breaths}/min"/>
    </valueQuantity>
    
    <effectiveDateTime value="1999-05-27"/>
    <status value="final"/>
    <reliability value="ok"/>
    <subject>
      <reference value="Patient/ID1291938"/>
    </subject>
    <encounter>
      <reference value="Encounter/ID774"/>
    </encounter>
    
  </Observation>
  
  </resource>
  <request>
    <method value="PUT"/>
    <url value="Observation/ID774-respiratoryrate"/>
  </request>
</entry>
<entry>
  <resource>
    
    
  <Observation>
  <id value="ID774-temperature"/>
    <text>
      <status value="generated"/>
      <div xmlns="http://www.w3.org/1999/xhtml">1999-05-27: temperature = 36.11111 Cel</div>
    </text>
    <code>
      <coding>
        <system value="http://loinc.org"/>
        <code value="8310-5"/>
        <display value="temperature"/>
      </coding>
    </code>
    <valueQuantity>
      <value value="36.11111"/>
      <unit value="Cel"/>
      <system value="http://unitsofmeasure.org" />
      <code value="Cel"/>
    </valueQuantity>
    
    <effectiveDateTime value="1999-05-27"/>
    <status value="final"/>
    <reliability value="ok"/>
    <subject>
      <reference value="Patient/ID1291938"/>
    </subject>
    <encounter>
      <reference value="Encounter/ID774"/>
    </encounter>
    
  </Observation>
  
  </resource>
  <request>
    <method value="PUT"/>
    <url value="Observation/ID774-temperature"/>
  </request>
</entry>
<entry>
  <resource>
    
    
  <Observation>
  <id value="ID774-weight"/>
    <text>
      <status value="generated"/>
      <div xmlns="http://www.w3.org/1999/xhtml">1999-05-27: weight = 100.01712 kg</div>
    </text>
    <code>
      <coding>
        <system value="http://loinc.org"/>
        <code value="3141-9"/>
        <display value="weight"/>
      </coding>
    </code>
    <valueQuantity>
      <value value="100.01712"/>
      <unit value="kg"/>
      <system value="http://unitsofmeasure.org" />
      <code value="kg"/>
    </valueQuantity>
    
    <effectiveDateTime value="1999-05-27"/>
    <status value="final"/>
    <reliability value="ok"/>
    <subject>
      <reference value="Patient/ID1291938"/>
    </subject>
    <encounter>
      <reference value="Encounter/ID774"/>
    </encounter>
    
  </Observation>
  
  </resource>
  <request>
    <method value="PUT"/>
    <url value="Observation/ID774-weight"/>
  </request>
</entry>
<entry>
  <resource>
    
    
  <Observation>
  <id value="ID774-bmi"/>
    <text>
      <status value="generated"/>
      <div xmlns="http://www.w3.org/1999/xhtml">1999-05-27: bmi = 32.9 kg/m2</div>
    </text>
    <code>
      <coding>
        <system value="http://loinc.org"/>
        <code value="39156-5"/>
        <display value="bmi"/>
      </coding>
    </code>
    <valueQuantity>
      <value value="32.9"/>
      <unit value="kg/m2"/>
      <system value="http://unitsofmeasure.org" />
      <code value="kg/m2"/>
    </valueQuantity>
    
    <effectiveDateTime value="1999-05-27"/>
    <status value="final"/>
    <reliability value="ok"/>
    <subject>
      <reference value="Patient/ID1291938"/>
    </subject>
    <encounter>
      <reference value="Encounter/ID774"/>
    </encounter>
    
  </Observation>
  
  </resource>
  <request>
    <method value="PUT"/>
    <url value="Observation/ID774-bmi"/>
  </request>
</entry>
<entry>
  <resource>
    
    
  <Observation>
  <id value="ID774-oxygensaturation"/>
    <text>
      <status value="generated"/>
      <div xmlns="http://www.w3.org/1999/xhtml">1999-05-27: oxygen_saturation = 97.0 %{HemoglobinSaturation}</div>
    </text>
    <code>
      <coding>
        <system value="http://loinc.org"/>
        <code value="2710-2"/>
        <display value="oxygen_saturation"/>
      </coding>
    </code>
    <valueQuantity>
      <value value="97.0"/>
      <unit value="%{HemoglobinSaturation}"/>
      <system value="http://unitsofmeasure.org" />
      <code value="%{HemoglobinSaturation}"/>
    </valueQuantity>
    
    <effectiveDateTime value="1999-05-27"/>
    <status value="final"/>
    <reliability value="ok"/>
    <subject>
      <reference value="Patient/ID1291938"/>
    </subject>
    <encounter>
      <reference value="Encounter/ID774"/>
    </encounter>
    
  </Observation>
  
  </resource>
  <request>
    <method value="PUT"/>
    <url value="Observation/ID774-oxygensaturation"/>
  </request>
</entry>
<entry>
  <resource>
    
    
  <Observation>
  <id value="ID775-height"/>
    <text>
      <status value="generated"/>
      <div xmlns="http://www.w3.org/1999/xhtml">1999-05-28: height = 174.498 cm</div>
    </text>
    <code>
      <coding>
        <system value="http://loinc.org"/>
        <code value="8302-2"/>
        <display value="height"/>
      </coding>
    </code>
    <valueQuantity>
      <value value="174.498"/>
      <unit value="cm"/>
      <system value="http://unitsofmeasure.org" />
      <code value="cm"/>
    </valueQuantity>
    
    <effectiveDateTime value="1999-05-28"/>
    <status value="final"/>
    <reliability value="ok"/>
    <subject>
      <reference value="Patient/ID1291938"/>
    </subject>
    <encounter>
      <reference value="Encounter/ID775"/>
    </encounter>
    
  </Observation>
  
  </resource>
  <request>
    <method value="PUT"/>
    <url value="Observation/ID775-height"/>
  </request>
</entry>
<entry>
  <resource>
    
    
  <Observation>
  <id value="ID775-heartrate"/>
    <text>
      <status value="generated"/>
      <div xmlns="http://www.w3.org/1999/xhtml">1999-05-28: heart_rate = 76.0 {beats}/min</div>
    </text>
    <code>
      <coding>
        <system value="http://loinc.org"/>
        <code value="8867-4"/>
        <display value="heart_rate"/>
      </coding>
    </code>
    <valueQuantity>
      <value value="76.0"/>
      <unit value="{beats}/min"/>
      <system value="http://unitsofmeasure.org" />
      <code value="{beats}/min"/>
    </valueQuantity>
    
    <effectiveDateTime value="1999-05-28"/>
    <status value="final"/>
    <reliability value="ok"/>
    <subject>
      <reference value="Patient/ID1291938"/>
    </subject>
    <encounter>
      <reference value="Encounter/ID775"/>
    </encounter>
    
  </Observation>
  
  </resource>
  <request>
    <method value="PUT"/>
    <url value="Observation/ID775-heartrate"/>
  </request>
</entry>
<entry>
  <resource>
    
    
  <Observation>
  <id value="ID775-respiratoryrate"/>
    <text>
      <status value="generated"/>
      <div xmlns="http://www.w3.org/1999/xhtml">1999-05-28: respiratory_rate = 18.0 {breaths}/min</div>
    </text>
    <code>
      <coding>
        <system value="http://loinc.org"/>
        <code value="9279-1"/>
        <display value="respiratory_rate"/>
      </coding>
    </code>
    <valueQuantity>
      <value value="18.0"/>
      <unit value="{breaths}/min"/>
      <system value="http://unitsofmeasure.org" />
      <code value="{breaths}/min"/>
    </valueQuantity>
    
    <effectiveDateTime value="1999-05-28"/>
    <status value="final"/>
    <reliability value="ok"/>
    <subject>
      <reference value="Patient/ID1291938"/>
    </subject>
    <encounter>
      <reference value="Encounter/ID775"/>
    </encounter>
    
  </Observation>
  
  </resource>
  <request>
    <method value="PUT"/>
    <url value="Observation/ID775-respiratoryrate"/>
  </request>
</entry>
<entry>
  <resource>
    
    
  <Observation>
  <id value="ID775-temperature"/>
    <text>
      <status value="generated"/>
      <div xmlns="http://www.w3.org/1999/xhtml">1999-05-28: temperature = 36.11111 Cel</div>
    </text>
    <code>
      <coding>
        <system value="http://loinc.org"/>
        <code value="8310-5"/>
        <display value="temperature"/>
      </coding>
    </code>
    <valueQuantity>
      <value value="36.11111"/>
      <unit value="Cel"/>
      <system value="http://unitsofmeasure.org" />
      <code value="Cel"/>
    </valueQuantity>
    
    <effectiveDateTime value="1999-05-28"/>
    <status value="final"/>
    <reliability value="ok"/>
    <subject>
      <reference value="Patient/ID1291938"/>
    </subject>
    <encounter>
      <reference value="Encounter/ID775"/>
    </encounter>
    
  </Observation>
  
  </resource>
  <request>
    <method value="PUT"/>
    <url value="Observation/ID775-temperature"/>
  </request>
</entry>
<entry>
  <resource>
    
    
  <Observation>
  <id value="ID775-weight"/>
    <text>
      <status value="generated"/>
      <div xmlns="http://www.w3.org/1999/xhtml">1999-05-28: weight = 100.65215 kg</div>
    </text>
    <code>
      <coding>
        <system value="http://loinc.org"/>
        <code value="3141-9"/>
        <display value="weight"/>
      </coding>
    </code>
    <valueQuantity>
      <value value="100.65215"/>
      <unit value="kg"/>
      <system value="http://unitsofmeasure.org" />
      <code value="kg"/>
    </valueQuantity>
    
    <effectiveDateTime value="1999-05-28"/>
    <status value="final"/>
    <reliability value="ok"/>
    <subject>
      <reference value="Patient/ID1291938"/>
    </subject>
    <encounter>
      <reference value="Encounter/ID775"/>
    </encounter>
    
  </Observation>
  
  </resource>
  <request>
    <method value="PUT"/>
    <url value="Observation/ID775-weight"/>
  </request>
</entry>
<entry>
  <resource>
    
    
  <Observation>
  <id value="ID775-bmi"/>
    <text>
      <status value="generated"/>
      <div xmlns="http://www.w3.org/1999/xhtml">1999-05-28: bmi = 33.0 kg/m2</div>
    </text>
    <code>
      <coding>
        <system value="http://loinc.org"/>
        <code value="39156-5"/>
        <display value="bmi"/>
      </coding>
    </code>
    <valueQuantity>
      <value value="33.0"/>
      <unit value="kg/m2"/>
      <system value="http://unitsofmeasure.org" />
      <code value="kg/m2"/>
    </valueQuantity>
    
    <effectiveDateTime value="1999-05-28"/>
    <status value="final"/>
    <reliability value="ok"/>
    <subject>
      <reference value="Patient/ID1291938"/>
    </subject>
    <encounter>
      <reference value="Encounter/ID775"/>
    </encounter>
    
  </Observation>
  
  </resource>
  <request>
    <method value="PUT"/>
    <url value="Observation/ID775-bmi"/>
  </request>
</entry>
<entry>
  <resource>
    
    
  <Observation>
  <id value="ID775-oxygensaturation"/>
    <text>
      <status value="generated"/>
      <div xmlns="http://www.w3.org/1999/xhtml">1999-05-28: oxygen_saturation = 97.0 %{HemoglobinSaturation}</div>
    </text>
    <code>
      <coding>
        <system value="http://loinc.org"/>
        <code value="2710-2"/>
        <display value="oxygen_saturation"/>
      </coding>
    </code>
    <valueQuantity>
      <value value="97.0"/>
      <unit value="%{HemoglobinSaturation}"/>
      <system value="http://unitsofmeasure.org" />
      <code value="%{HemoglobinSaturation}"/>
    </valueQuantity>
    
    <effectiveDateTime value="1999-05-28"/>
    <status value="final"/>
    <reliability value="ok"/>
    <subject>
      <reference value="Patient/ID1291938"/>
    </subject>
    <encounter>
      <reference value="Encounter/ID775"/>
    </encounter>
    
  </Observation>
  
  </resource>
  <request>
    <method value="PUT"/>
    <url value="Observation/ID775-oxygensaturation"/>
  </request>
</entry>
<entry>
  <resource>
    
    
  <Observation>
  <id value="ID776-height"/>
    <text>
      <status value="generated"/>
      <div xmlns="http://www.w3.org/1999/xhtml">1999-06-01: height = 173.736 cm</div>
    </text>
    <code>
      <coding>
        <system value="http://loinc.org"/>
        <code value="8302-2"/>
        <display value="height"/>
      </coding>
    </code>
    <valueQuantity>
      <value value="173.736"/>
      <unit value="cm"/>
      <system value="http://unitsofmeasure.org" />
      <code value="cm"/>
    </valueQuantity>
    
    <effectiveDateTime value="1999-06-01"/>
    <status value="final"/>
    <reliability value="ok"/>
    <subject>
      <reference value="Patient/ID1291938"/>
    </subject>
    <encounter>
      <reference value="Encounter/ID776"/>
    </encounter>
    
  </Observation>
  
  </resource>
  <request>
    <method value="PUT"/>
    <url value="Observation/ID776-height"/>
  </request>
</entry>
<entry>
  <resource>
    
    
  <Observation>
  <id value="ID776-heartrate"/>
    <text>
      <status value="generated"/>
      <div xmlns="http://www.w3.org/1999/xhtml">1999-06-01: heart_rate = 76.0 {beats}/min</div>
    </text>
    <code>
      <coding>
        <system value="http://loinc.org"/>
        <code value="8867-4"/>
        <display value="heart_rate"/>
      </coding>
    </code>
    <valueQuantity>
      <value value="76.0"/>
      <unit value="{beats}/min"/>
      <system value="http://unitsofmeasure.org" />
      <code value="{beats}/min"/>
    </valueQuantity>
    
    <effectiveDateTime value="1999-06-01"/>
    <status value="final"/>
    <reliability value="ok"/>
    <subject>
      <reference value="Patient/ID1291938"/>
    </subject>
    <encounter>
      <reference value="Encounter/ID776"/>
    </encounter>
    
  </Observation>
  
  </resource>
  <request>
    <method value="PUT"/>
    <url value="Observation/ID776-heartrate"/>
  </request>
</entry>
<entry>
  <resource>
    
    
  <Observation>
  <id value="ID776-respiratoryrate"/>
    <text>
      <status value="generated"/>
      <div xmlns="http://www.w3.org/1999/xhtml">1999-06-01: respiratory_rate = 18.0 {breaths}/min</div>
    </text>
    <code>
      <coding>
        <system value="http://loinc.org"/>
        <code value="9279-1"/>
        <display value="respiratory_rate"/>
      </coding>
    </code>
    <valueQuantity>
      <value value="18.0"/>
      <unit value="{breaths}/min"/>
      <system value="http://unitsofmeasure.org" />
      <code value="{breaths}/min"/>
    </valueQuantity>
    
    <effectiveDateTime value="1999-06-01"/>
    <status value="final"/>
    <reliability value="ok"/>
    <subject>
      <reference value="Patient/ID1291938"/>
    </subject>
    <encounter>
      <reference value="Encounter/ID776"/>
    </encounter>
    
  </Observation>
  
  </resource>
  <request>
    <method value="PUT"/>
    <url value="Observation/ID776-respiratoryrate"/>
  </request>
</entry>
<entry>
  <resource>
    
    
  <Observation>
  <id value="ID776-temperature"/>
    <text>
      <status value="generated"/>
      <div xmlns="http://www.w3.org/1999/xhtml">1999-06-01: temperature = 36.11111 Cel</div>
    </text>
    <code>
      <coding>
        <system value="http://loinc.org"/>
        <code value="8310-5"/>
        <display value="temperature"/>
      </coding>
    </code>
    <valueQuantity>
      <value value="36.11111"/>
      <unit value="Cel"/>
      <system value="http://unitsofmeasure.org" />
      <code value="Cel"/>
    </valueQuantity>
    
    <effectiveDateTime value="1999-06-01"/>
    <status value="final"/>
    <reliability value="ok"/>
    <subject>
      <reference value="Patient/ID1291938"/>
    </subject>
    <encounter>
      <reference value="Encounter/ID776"/>
    </encounter>
    
  </Observation>
  
  </resource>
  <request>
    <method value="PUT"/>
    <url value="Observation/ID776-temperature"/>
  </request>
</entry>
<entry>
  <resource>
    
    
  <Observation>
  <id value="ID776-weight"/>
    <text>
      <status value="generated"/>
      <div xmlns="http://www.w3.org/1999/xhtml">1999-06-01: weight = 102.55723 kg</div>
    </text>
    <code>
      <coding>
        <system value="http://loinc.org"/>
        <code value="3141-9"/>
        <display value="weight"/>
      </coding>
    </code>
    <valueQuantity>
      <value value="102.55723"/>
      <unit value="kg"/>
      <system value="http://unitsofmeasure.org" />
      <code value="kg"/>
    </valueQuantity>
    
    <effectiveDateTime value="1999-06-01"/>
    <status value="final"/>
    <reliability value="ok"/>
    <subject>
      <reference value="Patient/ID1291938"/>
    </subject>
    <encounter>
      <reference value="Encounter/ID776"/>
    </encounter>
    
  </Observation>
  
  </resource>
  <request>
    <method value="PUT"/>
    <url value="Observation/ID776-weight"/>
  </request>
</entry>
<entry>
  <resource>
    
    
  <Observation>
  <id value="ID776-bmi"/>
    <text>
      <status value="generated"/>
      <div xmlns="http://www.w3.org/1999/xhtml">1999-06-01: bmi = 34.0 kg/m2</div>
    </text>
    <code>
      <coding>
        <system value="http://loinc.org"/>
        <code value="39156-5"/>
        <display value="bmi"/>
      </coding>
    </code>
    <valueQuantity>
      <value value="34.0"/>
      <unit value="kg/m2"/>
      <system value="http://unitsofmeasure.org" />
      <code value="kg/m2"/>
    </valueQuantity>
    
    <effectiveDateTime value="1999-06-01"/>
    <status value="final"/>
    <reliability value="ok"/>
    <subject>
      <reference value="Patient/ID1291938"/>
    </subject>
    <encounter>
      <reference value="Encounter/ID776"/>
    </encounter>
    
  </Observation>
  
  </resource>
  <request>
    <method value="PUT"/>
    <url value="Observation/ID776-bmi"/>
  </request>
</entry>
<entry>
  <resource>
    
    
  <Observation>
  <id value="ID776-oxygensaturation"/>
    <text>
      <status value="generated"/>
      <div xmlns="http://www.w3.org/1999/xhtml">1999-06-01: oxygen_saturation = 97.0 %{HemoglobinSaturation}</div>
    </text>
    <code>
      <coding>
        <system value="http://loinc.org"/>
        <code value="2710-2"/>
        <display value="oxygen_saturation"/>
      </coding>
    </code>
    <valueQuantity>
      <value value="97.0"/>
      <unit value="%{HemoglobinSaturation}"/>
      <system value="http://unitsofmeasure.org" />
      <code value="%{HemoglobinSaturation}"/>
    </valueQuantity>
    
    <effectiveDateTime value="1999-06-01"/>
    <status value="final"/>
    <reliability value="ok"/>
    <subject>
      <reference value="Patient/ID1291938"/>
    </subject>
    <encounter>
      <reference value="Encounter/ID776"/>
    </encounter>
    
  </Observation>
  
  </resource>
  <request>
    <method value="PUT"/>
    <url value="Observation/ID776-oxygensaturation"/>
  </request>
</entry>
<entry>
  <resource>
    
    
  <Observation>
  <id value="ID777-height"/>
    <text>
      <status value="generated"/>
      <div xmlns="http://www.w3.org/1999/xhtml">1999-06-03: height = 174.498 cm</div>
    </text>
    <code>
      <coding>
        <system value="http://loinc.org"/>
        <code value="8302-2"/>
        <display value="height"/>
      </coding>
    </code>
    <valueQuantity>
      <value value="174.498"/>
      <unit value="cm"/>
      <system value="http://unitsofmeasure.org" />
      <code value="cm"/>
    </valueQuantity>
    
    <effectiveDateTime value="1999-06-03"/>
    <status value="final"/>
    <reliability value="ok"/>
    <subject>
      <reference value="Patient/ID1291938"/>
    </subject>
    <encounter>
      <reference value="Encounter/ID777"/>
    </encounter>
    
  </Observation>
  
  </resource>
  <request>
    <method value="PUT"/>
    <url value="Observation/ID777-height"/>
  </request>
</entry>
<entry>
  <resource>
    
    
  <Observation>
  <id value="ID777-heartrate"/>
    <text>
      <status value="generated"/>
      <div xmlns="http://www.w3.org/1999/xhtml">1999-06-03: heart_rate = 77.0 {beats}/min</div>
    </text>
    <code>
      <coding>
        <system value="http://loinc.org"/>
        <code value="8867-4"/>
        <display value="heart_rate"/>
      </coding>
    </code>
    <valueQuantity>
      <value value="77.0"/>
      <unit value="{beats}/min"/>
      <system value="http://unitsofmeasure.org" />
      <code value="{beats}/min"/>
    </valueQuantity>
    
    <effectiveDateTime value="1999-06-03"/>
    <status value="final"/>
    <reliability value="ok"/>
    <subject>
      <reference value="Patient/ID1291938"/>
    </subject>
    <encounter>
      <reference value="Encounter/ID777"/>
    </encounter>
    
  </Observation>
  
  </resource>
  <request>
    <method value="PUT"/>
    <url value="Observation/ID777-heartrate"/>
  </request>
</entry>
<entry>
  <resource>
    
    
  <Observation>
  <id value="ID777-respiratoryrate"/>
    <text>
      <status value="generated"/>
      <div xmlns="http://www.w3.org/1999/xhtml">1999-06-03: respiratory_rate = 18.0 {breaths}/min</div>
    </text>
    <code>
      <coding>
        <system value="http://loinc.org"/>
        <code value="9279-1"/>
        <display value="respiratory_rate"/>
      </coding>
    </code>
    <valueQuantity>
      <value value="18.0"/>
      <unit value="{breaths}/min"/>
      <system value="http://unitsofmeasure.org" />
      <code value="{breaths}/min"/>
    </valueQuantity>
    
    <effectiveDateTime value="1999-06-03"/>
    <status value="final"/>
    <reliability value="ok"/>
    <subject>
      <reference value="Patient/ID1291938"/>
    </subject>
    <encounter>
      <reference value="Encounter/ID777"/>
    </encounter>
    
  </Observation>
  
  </resource>
  <request>
    <method value="PUT"/>
    <url value="Observation/ID777-respiratoryrate"/>
  </request>
</entry>
<entry>
  <resource>
    
    
  <Observation>
  <id value="ID777-temperature"/>
    <text>
      <status value="generated"/>
      <div xmlns="http://www.w3.org/1999/xhtml">1999-06-03: temperature = 36.11111 Cel</div>
    </text>
    <code>
      <coding>
        <system value="http://loinc.org"/>
        <code value="8310-5"/>
        <display value="temperature"/>
      </coding>
    </code>
    <valueQuantity>
      <value value="36.11111"/>
      <unit value="Cel"/>
      <system value="http://unitsofmeasure.org" />
      <code value="Cel"/>
    </valueQuantity>
    
    <effectiveDateTime value="1999-06-03"/>
    <status value="final"/>
    <reliability value="ok"/>
    <subject>
      <reference value="Patient/ID1291938"/>
    </subject>
    <encounter>
      <reference value="Encounter/ID777"/>
    </encounter>
    
  </Observation>
  
  </resource>
  <request>
    <method value="PUT"/>
    <url value="Observation/ID777-temperature"/>
  </request>
</entry>
<entry>
  <resource>
    
    
  <Observation>
  <id value="ID777-weight"/>
    <text>
      <status value="generated"/>
      <div xmlns="http://www.w3.org/1999/xhtml">1999-06-03: weight = 98.88314 kg</div>
    </text>
    <code>
      <coding>
        <system value="http://loinc.org"/>
        <code value="3141-9"/>
        <display value="weight"/>
      </coding>
    </code>
    <valueQuantity>
      <value value="98.88314"/>
      <unit value="kg"/>
      <system value="http://unitsofmeasure.org" />
      <code value="kg"/>
    </valueQuantity>
    
    <effectiveDateTime value="1999-06-03"/>
    <status value="final"/>
    <reliability value="ok"/>
    <subject>
      <reference value="Patient/ID1291938"/>
    </subject>
    <encounter>
      <reference value="Encounter/ID777"/>
    </encounter>
    
  </Observation>
  
  </resource>
  <request>
    <method value="PUT"/>
    <url value="Observation/ID777-weight"/>
  </request>
</entry>
<entry>
  <resource>
    
    
  <Observation>
  <id value="ID777-bmi"/>
    <text>
      <status value="generated"/>
      <div xmlns="http://www.w3.org/1999/xhtml">1999-06-03: bmi = 32.5 kg/m2</div>
    </text>
    <code>
      <coding>
        <system value="http://loinc.org"/>
        <code value="39156-5"/>
        <display value="bmi"/>
      </coding>
    </code>
    <valueQuantity>
      <value value="32.5"/>
      <unit value="kg/m2"/>
      <system value="http://unitsofmeasure.org" />
      <code value="kg/m2"/>
    </valueQuantity>
    
    <effectiveDateTime value="1999-06-03"/>
    <status value="final"/>
    <reliability value="ok"/>
    <subject>
      <reference value="Patient/ID1291938"/>
    </subject>
    <encounter>
      <reference value="Encounter/ID777"/>
    </encounter>
    
  </Observation>
  
  </resource>
  <request>
    <method value="PUT"/>
    <url value="Observation/ID777-bmi"/>
  </request>
</entry>
<entry>
  <resource>
    
    
  <Observation>
  <id value="ID777-oxygensaturation"/>
    <text>
      <status value="generated"/>
      <div xmlns="http://www.w3.org/1999/xhtml">1999-06-03: oxygen_saturation = 97.0 %{HemoglobinSaturation}</div>
    </text>
    <code>
      <coding>
        <system value="http://loinc.org"/>
        <code value="2710-2"/>
        <display value="oxygen_saturation"/>
      </coding>
    </code>
    <valueQuantity>
      <value value="97.0"/>
      <unit value="%{HemoglobinSaturation}"/>
      <system value="http://unitsofmeasure.org" />
      <code value="%{HemoglobinSaturation}"/>
    </valueQuantity>
    
    <effectiveDateTime value="1999-06-03"/>
    <status value="final"/>
    <reliability value="ok"/>
    <subject>
      <reference value="Patient/ID1291938"/>
    </subject>
    <encounter>
      <reference value="Encounter/ID777"/>
    </encounter>
    
  </Observation>
  
  </resource>
  <request>
    <method value="PUT"/>
    <url value="Observation/ID777-oxygensaturation"/>
  </request>
</entry>
<entry>
  <resource>
    
    
  <Observation>
  <id value="ID778-height"/>
    <text>
      <status value="generated"/>
      <div xmlns="http://www.w3.org/1999/xhtml">1999-06-07: height = 173.99 cm</div>
    </text>
    <code>
      <coding>
        <system value="http://loinc.org"/>
        <code value="8302-2"/>
        <display value="height"/>
      </coding>
    </code>
    <valueQuantity>
      <value value="173.99"/>
      <unit value="cm"/>
      <system value="http://unitsofmeasure.org" />
      <code value="cm"/>
    </valueQuantity>
    
    <effectiveDateTime value="1999-06-07"/>
    <status value="final"/>
    <reliability value="ok"/>
    <subject>
      <reference value="Patient/ID1291938"/>
    </subject>
    <encounter>
      <reference value="Encounter/ID778"/>
    </encounter>
    
  </Observation>
  
  </resource>
  <request>
    <method value="PUT"/>
    <url value="Observation/ID778-height"/>
  </request>
</entry>
<entry>
  <resource>
    
    
  <Observation>
  <id value="ID778-heartrate"/>
    <text>
      <status value="generated"/>
      <div xmlns="http://www.w3.org/1999/xhtml">1999-06-07: heart_rate = 77.0 {beats}/min</div>
    </text>
    <code>
      <coding>
        <system value="http://loinc.org"/>
        <code value="8867-4"/>
        <display value="heart_rate"/>
      </coding>
    </code>
    <valueQuantity>
      <value value="77.0"/>
      <unit value="{beats}/min"/>
      <system value="http://unitsofmeasure.org" />
      <code value="{beats}/min"/>
    </valueQuantity>
    
    <effectiveDateTime value="1999-06-07"/>
    <status value="final"/>
    <reliability value="ok"/>
    <subject>
      <reference value="Patient/ID1291938"/>
    </subject>
    <encounter>
      <reference value="Encounter/ID778"/>
    </encounter>
    
  </Observation>
  
  </resource>
  <request>
    <method value="PUT"/>
    <url value="Observation/ID778-heartrate"/>
  </request>
</entry>
<entry>
  <resource>
    
    
  <Observation>
  <id value="ID778-respiratoryrate"/>
    <text>
      <status value="generated"/>
      <div xmlns="http://www.w3.org/1999/xhtml">1999-06-07: respiratory_rate = 18.0 {breaths}/min</div>
    </text>
    <code>
      <coding>
        <system value="http://loinc.org"/>
        <code value="9279-1"/>
        <display value="respiratory_rate"/>
      </coding>
    </code>
    <valueQuantity>
      <value value="18.0"/>
      <unit value="{breaths}/min"/>
      <system value="http://unitsofmeasure.org" />
      <code value="{breaths}/min"/>
    </valueQuantity>
    
    <effectiveDateTime value="1999-06-07"/>
    <status value="final"/>
    <reliability value="ok"/>
    <subject>
      <reference value="Patient/ID1291938"/>
    </subject>
    <encounter>
      <reference value="Encounter/ID778"/>
    </encounter>
    
  </Observation>
  
  </resource>
  <request>
    <method value="PUT"/>
    <url value="Observation/ID778-respiratoryrate"/>
  </request>
</entry>
<entry>
  <resource>
    
    
  <Observation>
  <id value="ID778-temperature"/>
    <text>
      <status value="generated"/>
      <div xmlns="http://www.w3.org/1999/xhtml">1999-06-07: temperature = 36.11111 Cel</div>
    </text>
    <code>
      <coding>
        <system value="http://loinc.org"/>
        <code value="8310-5"/>
        <display value="temperature"/>
      </coding>
    </code>
    <valueQuantity>
      <value value="36.11111"/>
      <unit value="Cel"/>
      <system value="http://unitsofmeasure.org" />
      <code value="Cel"/>
    </valueQuantity>
    
    <effectiveDateTime value="1999-06-07"/>
    <status value="final"/>
    <reliability value="ok"/>
    <subject>
      <reference value="Patient/ID1291938"/>
    </subject>
    <encounter>
      <reference value="Encounter/ID778"/>
    </encounter>
    
  </Observation>
  
  </resource>
  <request>
    <method value="PUT"/>
    <url value="Observation/ID778-temperature"/>
  </request>
</entry>
<entry>
  <resource>
    
    
  <Observation>
  <id value="ID778-weight"/>
    <text>
      <status value="generated"/>
      <div xmlns="http://www.w3.org/1999/xhtml">1999-06-07: weight = 100.74287 kg</div>
    </text>
    <code>
      <coding>
        <system value="http://loinc.org"/>
        <code value="3141-9"/>
        <display value="weight"/>
      </coding>
    </code>
    <valueQuantity>
      <value value="100.74287"/>
      <unit value="kg"/>
      <system value="http://unitsofmeasure.org" />
      <code value="kg"/>
    </valueQuantity>
    
    <effectiveDateTime value="1999-06-07"/>
    <status value="final"/>
    <reliability value="ok"/>
    <subject>
      <reference value="Patient/ID1291938"/>
    </subject>
    <encounter>
      <reference value="Encounter/ID778"/>
    </encounter>
    
  </Observation>
  
  </resource>
  <request>
    <method value="PUT"/>
    <url value="Observation/ID778-weight"/>
  </request>
</entry>
<entry>
  <resource>
    
    
  <Observation>
  <id value="ID778-bmi"/>
    <text>
      <status value="generated"/>
      <div xmlns="http://www.w3.org/1999/xhtml">1999-06-07: bmi = 33.3 kg/m2</div>
    </text>
    <code>
      <coding>
        <system value="http://loinc.org"/>
        <code value="39156-5"/>
        <display value="bmi"/>
      </coding>
    </code>
    <valueQuantity>
      <value value="33.3"/>
      <unit value="kg/m2"/>
      <system value="http://unitsofmeasure.org" />
      <code value="kg/m2"/>
    </valueQuantity>
    
    <effectiveDateTime value="1999-06-07"/>
    <status value="final"/>
    <reliability value="ok"/>
    <subject>
      <reference value="Patient/ID1291938"/>
    </subject>
    <encounter>
      <reference value="Encounter/ID778"/>
    </encounter>
    
  </Observation>
  
  </resource>
  <request>
    <method value="PUT"/>
    <url value="Observation/ID778-bmi"/>
  </request>
</entry>
<entry>
  <resource>
    
    
  <Observation>
  <id value="ID778-oxygensaturation"/>
    <text>
      <status value="generated"/>
      <div xmlns="http://www.w3.org/1999/xhtml">1999-06-07: oxygen_saturation = 97.0 %{HemoglobinSaturation}</div>
    </text>
    <code>
      <coding>
        <system value="http://loinc.org"/>
        <code value="2710-2"/>
        <display value="oxygen_saturation"/>
      </coding>
    </code>
    <valueQuantity>
      <value value="97.0"/>
      <unit value="%{HemoglobinSaturation}"/>
      <system value="http://unitsofmeasure.org" />
      <code value="%{HemoglobinSaturation}"/>
    </valueQuantity>
    
    <effectiveDateTime value="1999-06-07"/>
    <status value="final"/>
    <reliability value="ok"/>
    <subject>
      <reference value="Patient/ID1291938"/>
    </subject>
    <encounter>
      <reference value="Encounter/ID778"/>
    </encounter>
    
  </Observation>
  
  </resource>
  <request>
    <method value="PUT"/>
    <url value="Observation/ID778-oxygensaturation"/>
  </request>
</entry>
<entry>
  <resource>
    
    
  <Observation>
  <id value="ID779-height"/>
    <text>
      <status value="generated"/>
      <div xmlns="http://www.w3.org/1999/xhtml">1999-06-09: height = 173.736 cm</div>
    </text>
    <code>
      <coding>
        <system value="http://loinc.org"/>
        <code value="8302-2"/>
        <display value="height"/>
      </coding>
    </code>
    <valueQuantity>
      <value value="173.736"/>
      <unit value="cm"/>
      <system value="http://unitsofmeasure.org" />
      <code value="cm"/>
    </valueQuantity>
    
    <effectiveDateTime value="1999-06-09"/>
    <status value="final"/>
    <reliability value="ok"/>
    <subject>
      <reference value="Patient/ID1291938"/>
    </subject>
    <encounter>
      <reference value="Encounter/ID779"/>
    </encounter>
    
  </Observation>
  
  </resource>
  <request>
    <method value="PUT"/>
    <url value="Observation/ID779-height"/>
  </request>
</entry>
<entry>
  <resource>
    
    
  <Observation>
  <id value="ID779-heartrate"/>
    <text>
      <status value="generated"/>
      <div xmlns="http://www.w3.org/1999/xhtml">1999-06-09: heart_rate = 74.0 {beats}/min</div>
    </text>
    <code>
      <coding>
        <system value="http://loinc.org"/>
        <code value="8867-4"/>
        <display value="heart_rate"/>
      </coding>
    </code>
    <valueQuantity>
      <value value="74.0"/>
      <unit value="{beats}/min"/>
      <system value="http://unitsofmeasure.org" />
      <code value="{beats}/min"/>
    </valueQuantity>
    
    <effectiveDateTime value="1999-06-09"/>
    <status value="final"/>
    <reliability value="ok"/>
    <subject>
      <reference value="Patient/ID1291938"/>
    </subject>
    <encounter>
      <reference value="Encounter/ID779"/>
    </encounter>
    
  </Observation>
  
  </resource>
  <request>
    <method value="PUT"/>
    <url value="Observation/ID779-heartrate"/>
  </request>
</entry>
<entry>
  <resource>
    
    
  <Observation>
  <id value="ID779-respiratoryrate"/>
    <text>
      <status value="generated"/>
      <div xmlns="http://www.w3.org/1999/xhtml">1999-06-09: respiratory_rate = 18.0 {breaths}/min</div>
    </text>
    <code>
      <coding>
        <system value="http://loinc.org"/>
        <code value="9279-1"/>
        <display value="respiratory_rate"/>
      </coding>
    </code>
    <valueQuantity>
      <value value="18.0"/>
      <unit value="{breaths}/min"/>
      <system value="http://unitsofmeasure.org" />
      <code value="{breaths}/min"/>
    </valueQuantity>
    
    <effectiveDateTime value="1999-06-09"/>
    <status value="final"/>
    <reliability value="ok"/>
    <subject>
      <reference value="Patient/ID1291938"/>
    </subject>
    <encounter>
      <reference value="Encounter/ID779"/>
    </encounter>
    
  </Observation>
  
  </resource>
  <request>
    <method value="PUT"/>
    <url value="Observation/ID779-respiratoryrate"/>
  </request>
</entry>
<entry>
  <resource>
    
    
  <Observation>
  <id value="ID779-temperature"/>
    <text>
      <status value="generated"/>
      <div xmlns="http://www.w3.org/1999/xhtml">1999-06-09: temperature = 36.11111 Cel</div>
    </text>
    <code>
      <coding>
        <system value="http://loinc.org"/>
        <code value="8310-5"/>
        <display value="temperature"/>
      </coding>
    </code>
    <valueQuantity>
      <value value="36.11111"/>
      <unit value="Cel"/>
      <system value="http://unitsofmeasure.org" />
      <code value="Cel"/>
    </valueQuantity>
    
    <effectiveDateTime value="1999-06-09"/>
    <status value="final"/>
    <reliability value="ok"/>
    <subject>
      <reference value="Patient/ID1291938"/>
    </subject>
    <encounter>
      <reference value="Encounter/ID779"/>
    </encounter>
    
  </Observation>
  
  </resource>
  <request>
    <method value="PUT"/>
    <url value="Observation/ID779-temperature"/>
  </request>
</entry>
<entry>
  <resource>
    
    
  <Observation>
  <id value="ID779-weight"/>
    <text>
      <status value="generated"/>
      <div xmlns="http://www.w3.org/1999/xhtml">1999-06-09: weight = 97.477 kg</div>
    </text>
    <code>
      <coding>
        <system value="http://loinc.org"/>
        <code value="3141-9"/>
        <display value="weight"/>
      </coding>
    </code>
    <valueQuantity>
      <value value="97.477"/>
      <unit value="kg"/>
      <system value="http://unitsofmeasure.org" />
      <code value="kg"/>
    </valueQuantity>
    
    <effectiveDateTime value="1999-06-09"/>
    <status value="final"/>
    <reliability value="ok"/>
    <subject>
      <reference value="Patient/ID1291938"/>
    </subject>
    <encounter>
      <reference value="Encounter/ID779"/>
    </encounter>
    
  </Observation>
  
  </resource>
  <request>
    <method value="PUT"/>
    <url value="Observation/ID779-weight"/>
  </request>
</entry>
<entry>
  <resource>
    
    
  <Observation>
  <id value="ID779-bmi"/>
    <text>
      <status value="generated"/>
      <div xmlns="http://www.w3.org/1999/xhtml">1999-06-09: bmi = 32.3 kg/m2</div>
    </text>
    <code>
      <coding>
        <system value="http://loinc.org"/>
        <code value="39156-5"/>
        <display value="bmi"/>
      </coding>
    </code>
    <valueQuantity>
      <value value="32.3"/>
      <unit value="kg/m2"/>
      <system value="http://unitsofmeasure.org" />
      <code value="kg/m2"/>
    </valueQuantity>
    
    <effectiveDateTime value="1999-06-09"/>
    <status value="final"/>
    <reliability value="ok"/>
    <subject>
      <reference value="Patient/ID1291938"/>
    </subject>
    <encounter>
      <reference value="Encounter/ID779"/>
    </encounter>
    
  </Observation>
  
  </resource>
  <request>
    <method value="PUT"/>
    <url value="Observation/ID779-bmi"/>
  </request>
</entry>
<entry>
  <resource>
    
    
  <Observation>
  <id value="ID779-oxygensaturation"/>
    <text>
      <status value="generated"/>
      <div xmlns="http://www.w3.org/1999/xhtml">1999-06-09: oxygen_saturation = 97.0 %{HemoglobinSaturation}</div>
    </text>
    <code>
      <coding>
        <system value="http://loinc.org"/>
        <code value="2710-2"/>
        <display value="oxygen_saturation"/>
      </coding>
    </code>
    <valueQuantity>
      <value value="97.0"/>
      <unit value="%{HemoglobinSaturation}"/>
      <system value="http://unitsofmeasure.org" />
      <code value="%{HemoglobinSaturation}"/>
    </valueQuantity>
    
    <effectiveDateTime value="1999-06-09"/>
    <status value="final"/>
    <reliability value="ok"/>
    <subject>
      <reference value="Patient/ID1291938"/>
    </subject>
    <encounter>
      <reference value="Encounter/ID779"/>
    </encounter>
    
  </Observation>
  
  </resource>
  <request>
    <method value="PUT"/>
    <url value="Observation/ID779-oxygensaturation"/>
  </request>
</entry>
<entry>
  <resource>
    
    
  <Observation>
  <id value="ID780-height"/>
    <text>
      <status value="generated"/>
      <div xmlns="http://www.w3.org/1999/xhtml">2003-04-09: height = 173.228 cm</div>
    </text>
    <code>
      <coding>
        <system value="http://loinc.org"/>
        <code value="8302-2"/>
        <display value="height"/>
      </coding>
    </code>
    <valueQuantity>
      <value value="173.228"/>
      <unit value="cm"/>
      <system value="http://unitsofmeasure.org" />
      <code value="cm"/>
    </valueQuantity>
    
    <effectiveDateTime value="2003-04-09"/>
    <status value="final"/>
    <reliability value="ok"/>
    <subject>
      <reference value="Patient/ID1291938"/>
    </subject>
    <encounter>
      <reference value="Encounter/ID780"/>
    </encounter>
    
  </Observation>
  
  </resource>
  <request>
    <method value="PUT"/>
    <url value="Observation/ID780-height"/>
  </request>
</entry>
<entry>
  <resource>
    
    
  <Observation>
  <id value="ID780-heartrate"/>
    <text>
      <status value="generated"/>
      <div xmlns="http://www.w3.org/1999/xhtml">2003-04-09: heart_rate = 74.0 {beats}/min</div>
    </text>
    <code>
      <coding>
        <system value="http://loinc.org"/>
        <code value="8867-4"/>
        <display value="heart_rate"/>
      </coding>
    </code>
    <valueQuantity>
      <value value="74.0"/>
      <unit value="{beats}/min"/>
      <system value="http://unitsofmeasure.org" />
      <code value="{beats}/min"/>
    </valueQuantity>
    
    <effectiveDateTime value="2003-04-09"/>
    <status value="final"/>
    <reliability value="ok"/>
    <subject>
      <reference value="Patient/ID1291938"/>
    </subject>
    <encounter>
      <reference value="Encounter/ID780"/>
    </encounter>
    
  </Observation>
  
  </resource>
  <request>
    <method value="PUT"/>
    <url value="Observation/ID780-heartrate"/>
  </request>
</entry>
<entry>
  <resource>
    
    
  <Observation>
  <id value="ID780-respiratoryrate"/>
    <text>
      <status value="generated"/>
      <div xmlns="http://www.w3.org/1999/xhtml">2003-04-09: respiratory_rate = 20.0 {breaths}/min</div>
    </text>
    <code>
      <coding>
        <system value="http://loinc.org"/>
        <code value="9279-1"/>
        <display value="respiratory_rate"/>
      </coding>
    </code>
    <valueQuantity>
      <value value="20.0"/>
      <unit value="{breaths}/min"/>
      <system value="http://unitsofmeasure.org" />
      <code value="{breaths}/min"/>
    </valueQuantity>
    
    <effectiveDateTime value="2003-04-09"/>
    <status value="final"/>
    <reliability value="ok"/>
    <subject>
      <reference value="Patient/ID1291938"/>
    </subject>
    <encounter>
      <reference value="Encounter/ID780"/>
    </encounter>
    
  </Observation>
  
  </resource>
  <request>
    <method value="PUT"/>
    <url value="Observation/ID780-respiratoryrate"/>
  </request>
</entry>
<entry>
  <resource>
    
    
  <Observation>
  <id value="ID780-temperature"/>
    <text>
      <status value="generated"/>
      <div xmlns="http://www.w3.org/1999/xhtml">2003-04-09: temperature = 36.05556 Cel</div>
    </text>
    <code>
      <coding>
        <system value="http://loinc.org"/>
        <code value="8310-5"/>
        <display value="temperature"/>
      </coding>
    </code>
    <valueQuantity>
      <value value="36.05556"/>
      <unit value="Cel"/>
      <system value="http://unitsofmeasure.org" />
      <code value="Cel"/>
    </valueQuantity>
    
    <effectiveDateTime value="2003-04-09"/>
    <status value="final"/>
    <reliability value="ok"/>
    <subject>
      <reference value="Patient/ID1291938"/>
    </subject>
    <encounter>
      <reference value="Encounter/ID780"/>
    </encounter>
    
  </Observation>
  
  </resource>
  <request>
    <method value="PUT"/>
    <url value="Observation/ID780-temperature"/>
  </request>
</entry>
<entry>
  <resource>
    
    
  <Observation>
  <id value="ID780-weight"/>
    <text>
      <status value="generated"/>
      <div xmlns="http://www.w3.org/1999/xhtml">2003-04-09: weight = 96.4791 kg</div>
    </text>
    <code>
      <coding>
        <system value="http://loinc.org"/>
        <code value="3141-9"/>
        <display value="weight"/>
      </coding>
    </code>
    <valueQuantity>
      <value value="96.4791"/>
      <unit value="kg"/>
      <system value="http://unitsofmeasure.org" />
      <code value="kg"/>
    </valueQuantity>
    
    <effectiveDateTime value="2003-04-09"/>
    <status value="final"/>
    <reliability value="ok"/>
    <subject>
      <reference value="Patient/ID1291938"/>
    </subject>
    <encounter>
      <reference value="Encounter/ID780"/>
    </encounter>
    
  </Observation>
  
  </resource>
  <request>
    <method value="PUT"/>
    <url value="Observation/ID780-weight"/>
  </request>
</entry>
<entry>
  <resource>
    
    
  <Observation>
  <id value="ID780-bmi"/>
    <text>
      <status value="generated"/>
      <div xmlns="http://www.w3.org/1999/xhtml">2003-04-09: bmi = 32.1 kg/m2</div>
    </text>
    <code>
      <coding>
        <system value="http://loinc.org"/>
        <code value="39156-5"/>
        <display value="bmi"/>
      </coding>
    </code>
    <valueQuantity>
      <value value="32.1"/>
      <unit value="kg/m2"/>
      <system value="http://unitsofmeasure.org" />
      <code value="kg/m2"/>
    </valueQuantity>
    
    <effectiveDateTime value="2003-04-09"/>
    <status value="final"/>
    <reliability value="ok"/>
    <subject>
      <reference value="Patient/ID1291938"/>
    </subject>
    <encounter>
      <reference value="Encounter/ID780"/>
    </encounter>
    
  </Observation>
  
  </resource>
  <request>
    <method value="PUT"/>
    <url value="Observation/ID780-bmi"/>
  </request>
</entry>
<entry>
  <resource>
    
    
  <Observation>
  <id value="ID780-oxygensaturation"/>
    <text>
      <status value="generated"/>
      <div xmlns="http://www.w3.org/1999/xhtml">2003-04-09: oxygen_saturation = 97.0 %{HemoglobinSaturation}</div>
    </text>
    <code>
      <coding>
        <system value="http://loinc.org"/>
        <code value="2710-2"/>
        <display value="oxygen_saturation"/>
      </coding>
    </code>
    <valueQuantity>
      <value value="97.0"/>
      <unit value="%{HemoglobinSaturation}"/>
      <system value="http://unitsofmeasure.org" />
      <code value="%{HemoglobinSaturation}"/>
    </valueQuantity>
    
    <effectiveDateTime value="2003-04-09"/>
    <status value="final"/>
    <reliability value="ok"/>
    <subject>
      <reference value="Patient/ID1291938"/>
    </subject>
    <encounter>
      <reference value="Encounter/ID780"/>
    </encounter>
    
  </Observation>
  
  </resource>
  <request>
    <method value="PUT"/>
    <url value="Observation/ID780-oxygensaturation"/>
  </request>
</entry>
<entry>
  <resource>
    
    
  <Observation>
  <id value="ID781-height"/>
    <text>
      <status value="generated"/>
      <div xmlns="http://www.w3.org/1999/xhtml">2003-04-11: height = 173.736 cm</div>
    </text>
    <code>
      <coding>
        <system value="http://loinc.org"/>
        <code value="8302-2"/>
        <display value="height"/>
      </coding>
    </code>
    <valueQuantity>
      <value value="173.736"/>
      <unit value="cm"/>
      <system value="http://unitsofmeasure.org" />
      <code value="cm"/>
    </valueQuantity>
    
    <effectiveDateTime value="2003-04-11"/>
    <status value="final"/>
    <reliability value="ok"/>
    <subject>
      <reference value="Patient/ID1291938"/>
    </subject>
    <encounter>
      <reference value="Encounter/ID781"/>
    </encounter>
    
  </Observation>
  
  </resource>
  <request>
    <method value="PUT"/>
    <url value="Observation/ID781-height"/>
  </request>
</entry>
<entry>
  <resource>
    
    
  <Observation>
  <id value="ID781-heartrate"/>
    <text>
      <status value="generated"/>
      <div xmlns="http://www.w3.org/1999/xhtml">2003-04-11: heart_rate = 74.0 {beats}/min</div>
    </text>
    <code>
      <coding>
        <system value="http://loinc.org"/>
        <code value="8867-4"/>
        <display value="heart_rate"/>
      </coding>
    </code>
    <valueQuantity>
      <value value="74.0"/>
      <unit value="{beats}/min"/>
      <system value="http://unitsofmeasure.org" />
      <code value="{beats}/min"/>
    </valueQuantity>
    
    <effectiveDateTime value="2003-04-11"/>
    <status value="final"/>
    <reliability value="ok"/>
    <subject>
      <reference value="Patient/ID1291938"/>
    </subject>
    <encounter>
      <reference value="Encounter/ID781"/>
    </encounter>
    
  </Observation>
  
  </resource>
  <request>
    <method value="PUT"/>
    <url value="Observation/ID781-heartrate"/>
  </request>
</entry>
<entry>
  <resource>
    
    
  <Observation>
  <id value="ID781-respiratoryrate"/>
    <text>
      <status value="generated"/>
      <div xmlns="http://www.w3.org/1999/xhtml">2003-04-11: respiratory_rate = 20.0 {breaths}/min</div>
    </text>
    <code>
      <coding>
        <system value="http://loinc.org"/>
        <code value="9279-1"/>
        <display value="respiratory_rate"/>
      </coding>
    </code>
    <valueQuantity>
      <value value="20.0"/>
      <unit value="{breaths}/min"/>
      <system value="http://unitsofmeasure.org" />
      <code value="{breaths}/min"/>
    </valueQuantity>
    
    <effectiveDateTime value="2003-04-11"/>
    <status value="final"/>
    <reliability value="ok"/>
    <subject>
      <reference value="Patient/ID1291938"/>
    </subject>
    <encounter>
      <reference value="Encounter/ID781"/>
    </encounter>
    
  </Observation>
  
  </resource>
  <request>
    <method value="PUT"/>
    <url value="Observation/ID781-respiratoryrate"/>
  </request>
</entry>
<entry>
  <resource>
    
    
  <Observation>
  <id value="ID781-temperature"/>
    <text>
      <status value="generated"/>
      <div xmlns="http://www.w3.org/1999/xhtml">2003-04-11: temperature = 36.05556 Cel</div>
    </text>
    <code>
      <coding>
        <system value="http://loinc.org"/>
        <code value="8310-5"/>
        <display value="temperature"/>
      </coding>
    </code>
    <valueQuantity>
      <value value="36.05556"/>
      <unit value="Cel"/>
      <system value="http://unitsofmeasure.org" />
      <code value="Cel"/>
    </valueQuantity>
    
    <effectiveDateTime value="2003-04-11"/>
    <status value="final"/>
    <reliability value="ok"/>
    <subject>
      <reference value="Patient/ID1291938"/>
    </subject>
    <encounter>
      <reference value="Encounter/ID781"/>
    </encounter>
    
  </Observation>
  
  </resource>
  <request>
    <method value="PUT"/>
    <url value="Observation/ID781-temperature"/>
  </request>
</entry>
<entry>
  <resource>
    
    
  <Observation>
  <id value="ID781-weight"/>
    <text>
      <status value="generated"/>
      <div xmlns="http://www.w3.org/1999/xhtml">2003-04-11: weight = 95.98015 kg</div>
    </text>
    <code>
      <coding>
        <system value="http://loinc.org"/>
        <code value="3141-9"/>
        <display value="weight"/>
      </coding>
    </code>
    <valueQuantity>
      <value value="95.98015"/>
      <unit value="kg"/>
      <system value="http://unitsofmeasure.org" />
      <code value="kg"/>
    </valueQuantity>
    
    <effectiveDateTime value="2003-04-11"/>
    <status value="final"/>
    <reliability value="ok"/>
    <subject>
      <reference value="Patient/ID1291938"/>
    </subject>
    <encounter>
      <reference value="Encounter/ID781"/>
    </encounter>
    
  </Observation>
  
  </resource>
  <request>
    <method value="PUT"/>
    <url value="Observation/ID781-weight"/>
  </request>
</entry>
<entry>
  <resource>
    
    
  <Observation>
  <id value="ID781-bmi"/>
    <text>
      <status value="generated"/>
      <div xmlns="http://www.w3.org/1999/xhtml">2003-04-11: bmi = 31.8 kg/m2</div>
    </text>
    <code>
      <coding>
        <system value="http://loinc.org"/>
        <code value="39156-5"/>
        <display value="bmi"/>
      </coding>
    </code>
    <valueQuantity>
      <value value="31.8"/>
      <unit value="kg/m2"/>
      <system value="http://unitsofmeasure.org" />
      <code value="kg/m2"/>
    </valueQuantity>
    
    <effectiveDateTime value="2003-04-11"/>
    <status value="final"/>
    <reliability value="ok"/>
    <subject>
      <reference value="Patient/ID1291938"/>
    </subject>
    <encounter>
      <reference value="Encounter/ID781"/>
    </encounter>
    
  </Observation>
  
  </resource>
  <request>
    <method value="PUT"/>
    <url value="Observation/ID781-bmi"/>
  </request>
</entry>
<entry>
  <resource>
    
    
  <Observation>
  <id value="ID781-oxygensaturation"/>
    <text>
      <status value="generated"/>
      <div xmlns="http://www.w3.org/1999/xhtml">2003-04-11: oxygen_saturation = 97.0 %{HemoglobinSaturation}</div>
    </text>
    <code>
      <coding>
        <system value="http://loinc.org"/>
        <code value="2710-2"/>
        <display value="oxygen_saturation"/>
      </coding>
    </code>
    <valueQuantity>
      <value value="97.0"/>
      <unit value="%{HemoglobinSaturation}"/>
      <system value="http://unitsofmeasure.org" />
      <code value="%{HemoglobinSaturation}"/>
    </valueQuantity>
    
    <effectiveDateTime value="2003-04-11"/>
    <status value="final"/>
    <reliability value="ok"/>
    <subject>
      <reference value="Patient/ID1291938"/>
    </subject>
    <encounter>
      <reference value="Encounter/ID781"/>
    </encounter>
    
  </Observation>
  
  </resource>
  <request>
    <method value="PUT"/>
    <url value="Observation/ID781-oxygensaturation"/>
  </request>
</entry>
<entry>
  <resource>
    
    
  <Observation>
  <id value="ID782-height"/>
    <text>
      <status value="generated"/>
      <div xmlns="http://www.w3.org/1999/xhtml">2003-04-14: height = 173.99 cm</div>
    </text>
    <code>
      <coding>
        <system value="http://loinc.org"/>
        <code value="8302-2"/>
        <display value="height"/>
      </coding>
    </code>
    <valueQuantity>
      <value value="173.99"/>
      <unit value="cm"/>
      <system value="http://unitsofmeasure.org" />
      <code value="cm"/>
    </valueQuantity>
    
    <effectiveDateTime value="2003-04-14"/>
    <status value="final"/>
    <reliability value="ok"/>
    <subject>
      <reference value="Patient/ID1291938"/>
    </subject>
    <encounter>
      <reference value="Encounter/ID782"/>
    </encounter>
    
  </Observation>
  
  </resource>
  <request>
    <method value="PUT"/>
    <url value="Observation/ID782-height"/>
  </request>
</entry>
<entry>
  <resource>
    
    
  <Observation>
  <id value="ID782-heartrate"/>
    <text>
      <status value="generated"/>
      <div xmlns="http://www.w3.org/1999/xhtml">2003-04-14: heart_rate = 75.0 {beats}/min</div>
    </text>
    <code>
      <coding>
        <system value="http://loinc.org"/>
        <code value="8867-4"/>
        <display value="heart_rate"/>
      </coding>
    </code>
    <valueQuantity>
      <value value="75.0"/>
      <unit value="{beats}/min"/>
      <system value="http://unitsofmeasure.org" />
      <code value="{beats}/min"/>
    </valueQuantity>
    
    <effectiveDateTime value="2003-04-14"/>
    <status value="final"/>
    <reliability value="ok"/>
    <subject>
      <reference value="Patient/ID1291938"/>
    </subject>
    <encounter>
      <reference value="Encounter/ID782"/>
    </encounter>
    
  </Observation>
  
  </resource>
  <request>
    <method value="PUT"/>
    <url value="Observation/ID782-heartrate"/>
  </request>
</entry>
<entry>
  <resource>
    
    
  <Observation>
  <id value="ID782-respiratoryrate"/>
    <text>
      <status value="generated"/>
      <div xmlns="http://www.w3.org/1999/xhtml">2003-04-14: respiratory_rate = 20.0 {breaths}/min</div>
    </text>
    <code>
      <coding>
        <system value="http://loinc.org"/>
        <code value="9279-1"/>
        <display value="respiratory_rate"/>
      </coding>
    </code>
    <valueQuantity>
      <value value="20.0"/>
      <unit value="{breaths}/min"/>
      <system value="http://unitsofmeasure.org" />
      <code value="{breaths}/min"/>
    </valueQuantity>
    
    <effectiveDateTime value="2003-04-14"/>
    <status value="final"/>
    <reliability value="ok"/>
    <subject>
      <reference value="Patient/ID1291938"/>
    </subject>
    <encounter>
      <reference value="Encounter/ID782"/>
    </encounter>
    
  </Observation>
  
  </resource>
  <request>
    <method value="PUT"/>
    <url value="Observation/ID782-respiratoryrate"/>
  </request>
</entry>
<entry>
  <resource>
    
    
  <Observation>
  <id value="ID782-temperature"/>
    <text>
      <status value="generated"/>
      <div xmlns="http://www.w3.org/1999/xhtml">2003-04-14: temperature = 36.11111 Cel</div>
    </text>
    <code>
      <coding>
        <system value="http://loinc.org"/>
        <code value="8310-5"/>
        <display value="temperature"/>
      </coding>
    </code>
    <valueQuantity>
      <value value="36.11111"/>
      <unit value="Cel"/>
      <system value="http://unitsofmeasure.org" />
      <code value="Cel"/>
    </valueQuantity>
    
    <effectiveDateTime value="2003-04-14"/>
    <status value="final"/>
    <reliability value="ok"/>
    <subject>
      <reference value="Patient/ID1291938"/>
    </subject>
    <encounter>
      <reference value="Encounter/ID782"/>
    </encounter>
    
  </Observation>
  
  </resource>
  <request>
    <method value="PUT"/>
    <url value="Observation/ID782-temperature"/>
  </request>
</entry>
<entry>
  <resource>
    
    
  <Observation>
  <id value="ID782-weight"/>
    <text>
      <status value="generated"/>
      <div xmlns="http://www.w3.org/1999/xhtml">2003-04-14: weight = 94.66473 kg</div>
    </text>
    <code>
      <coding>
        <system value="http://loinc.org"/>
        <code value="3141-9"/>
        <display value="weight"/>
      </coding>
    </code>
    <valueQuantity>
      <value value="94.66473"/>
      <unit value="kg"/>
      <system value="http://unitsofmeasure.org" />
      <code value="kg"/>
    </valueQuantity>
    
    <effectiveDateTime value="2003-04-14"/>
    <status value="final"/>
    <reliability value="ok"/>
    <subject>
      <reference value="Patient/ID1291938"/>
    </subject>
    <encounter>
      <reference value="Encounter/ID782"/>
    </encounter>
    
  </Observation>
  
  </resource>
  <request>
    <method value="PUT"/>
    <url value="Observation/ID782-weight"/>
  </request>
</entry>
<entry>
  <resource>
    
    
  <Observation>
  <id value="ID782-bmi"/>
    <text>
      <status value="generated"/>
      <div xmlns="http://www.w3.org/1999/xhtml">2003-04-14: bmi = 31.3 kg/m2</div>
    </text>
    <code>
      <coding>
        <system value="http://loinc.org"/>
        <code value="39156-5"/>
        <display value="bmi"/>
      </coding>
    </code>
    <valueQuantity>
      <value value="31.3"/>
      <unit value="kg/m2"/>
      <system value="http://unitsofmeasure.org" />
      <code value="kg/m2"/>
    </valueQuantity>
    
    <effectiveDateTime value="2003-04-14"/>
    <status value="final"/>
    <reliability value="ok"/>
    <subject>
      <reference value="Patient/ID1291938"/>
    </subject>
    <encounter>
      <reference value="Encounter/ID782"/>
    </encounter>
    
  </Observation>
  
  </resource>
  <request>
    <method value="PUT"/>
    <url value="Observation/ID782-bmi"/>
  </request>
</entry>
<entry>
  <resource>
    
    
  <Observation>
  <id value="ID782-oxygensaturation"/>
    <text>
      <status value="generated"/>
      <div xmlns="http://www.w3.org/1999/xhtml">2003-04-14: oxygen_saturation = 97.0 %{HemoglobinSaturation}</div>
    </text>
    <code>
      <coding>
        <system value="http://loinc.org"/>
        <code value="2710-2"/>
        <display value="oxygen_saturation"/>
      </coding>
    </code>
    <valueQuantity>
      <value value="97.0"/>
      <unit value="%{HemoglobinSaturation}"/>
      <system value="http://unitsofmeasure.org" />
      <code value="%{HemoglobinSaturation}"/>
    </valueQuantity>
    
    <effectiveDateTime value="2003-04-14"/>
    <status value="final"/>
    <reliability value="ok"/>
    <subject>
      <reference value="Patient/ID1291938"/>
    </subject>
    <encounter>
      <reference value="Encounter/ID782"/>
    </encounter>
    
  </Observation>
  
  </resource>
  <request>
    <method value="PUT"/>
    <url value="Observation/ID782-oxygensaturation"/>
  </request>
</entry>
<entry>
  <resource>
    
    
  <Observation>
  <id value="ID783-height"/>
    <text>
      <status value="generated"/>
      <div xmlns="http://www.w3.org/1999/xhtml">2003-04-15: height = 173.99 cm</div>
    </text>
    <code>
      <coding>
        <system value="http://loinc.org"/>
        <code value="8302-2"/>
        <display value="height"/>
      </coding>
    </code>
    <valueQuantity>
      <value value="173.99"/>
      <unit value="cm"/>
      <system value="http://unitsofmeasure.org" />
      <code value="cm"/>
    </valueQuantity>
    
    <effectiveDateTime value="2003-04-15"/>
    <status value="final"/>
    <reliability value="ok"/>
    <subject>
      <reference value="Patient/ID1291938"/>
    </subject>
    <encounter>
      <reference value="Encounter/ID783"/>
    </encounter>
    
  </Observation>
  
  </resource>
  <request>
    <method value="PUT"/>
    <url value="Observation/ID783-height"/>
  </request>
</entry>
<entry>
  <resource>
    
    
  <Observation>
  <id value="ID783-heartrate"/>
    <text>
      <status value="generated"/>
      <div xmlns="http://www.w3.org/1999/xhtml">2003-04-15: heart_rate = 73.0 {beats}/min</div>
    </text>
    <code>
      <coding>
        <system value="http://loinc.org"/>
        <code value="8867-4"/>
        <display value="heart_rate"/>
      </coding>
    </code>
    <valueQuantity>
      <value value="73.0"/>
      <unit value="{beats}/min"/>
      <system value="http://unitsofmeasure.org" />
      <code value="{beats}/min"/>
    </valueQuantity>
    
    <effectiveDateTime value="2003-04-15"/>
    <status value="final"/>
    <reliability value="ok"/>
    <subject>
      <reference value="Patient/ID1291938"/>
    </subject>
    <encounter>
      <reference value="Encounter/ID783"/>
    </encounter>
    
  </Observation>
  
  </resource>
  <request>
    <method value="PUT"/>
    <url value="Observation/ID783-heartrate"/>
  </request>
</entry>
<entry>
  <resource>
    
    
  <Observation>
  <id value="ID783-respiratoryrate"/>
    <text>
      <status value="generated"/>
      <div xmlns="http://www.w3.org/1999/xhtml">2003-04-15: respiratory_rate = 20.0 {breaths}/min</div>
    </text>
    <code>
      <coding>
        <system value="http://loinc.org"/>
        <code value="9279-1"/>
        <display value="respiratory_rate"/>
      </coding>
    </code>
    <valueQuantity>
      <value value="20.0"/>
      <unit value="{breaths}/min"/>
      <system value="http://unitsofmeasure.org" />
      <code value="{breaths}/min"/>
    </valueQuantity>
    
    <effectiveDateTime value="2003-04-15"/>
    <status value="final"/>
    <reliability value="ok"/>
    <subject>
      <reference value="Patient/ID1291938"/>
    </subject>
    <encounter>
      <reference value="Encounter/ID783"/>
    </encounter>
    
  </Observation>
  
  </resource>
  <request>
    <method value="PUT"/>
    <url value="Observation/ID783-respiratoryrate"/>
  </request>
</entry>
<entry>
  <resource>
    
    
  <Observation>
  <id value="ID783-temperature"/>
    <text>
      <status value="generated"/>
      <div xmlns="http://www.w3.org/1999/xhtml">2003-04-15: temperature = 36.05556 Cel</div>
    </text>
    <code>
      <coding>
        <system value="http://loinc.org"/>
        <code value="8310-5"/>
        <display value="temperature"/>
      </coding>
    </code>
    <valueQuantity>
      <value value="36.05556"/>
      <unit value="Cel"/>
      <system value="http://unitsofmeasure.org" />
      <code value="Cel"/>
    </valueQuantity>
    
    <effectiveDateTime value="2003-04-15"/>
    <status value="final"/>
    <reliability value="ok"/>
    <subject>
      <reference value="Patient/ID1291938"/>
    </subject>
    <encounter>
      <reference value="Encounter/ID783"/>
    </encounter>
    
  </Observation>
  
  </resource>
  <request>
    <method value="PUT"/>
    <url value="Observation/ID783-temperature"/>
  </request>
</entry>
<entry>
  <resource>
    
    
  <Observation>
  <id value="ID783-weight"/>
    <text>
      <status value="generated"/>
      <div xmlns="http://www.w3.org/1999/xhtml">2003-04-15: weight = 94.89152 kg</div>
    </text>
    <code>
      <coding>
        <system value="http://loinc.org"/>
        <code value="3141-9"/>
        <display value="weight"/>
      </coding>
    </code>
    <valueQuantity>
      <value value="94.89152"/>
      <unit value="kg"/>
      <system value="http://unitsofmeasure.org" />
      <code value="kg"/>
    </valueQuantity>
    
    <effectiveDateTime value="2003-04-15"/>
    <status value="final"/>
    <reliability value="ok"/>
    <subject>
      <reference value="Patient/ID1291938"/>
    </subject>
    <encounter>
      <reference value="Encounter/ID783"/>
    </encounter>
    
  </Observation>
  
  </resource>
  <request>
    <method value="PUT"/>
    <url value="Observation/ID783-weight"/>
  </request>
</entry>
<entry>
  <resource>
    
    
  <Observation>
  <id value="ID783-bmi"/>
    <text>
      <status value="generated"/>
      <div xmlns="http://www.w3.org/1999/xhtml">2003-04-15: bmi = 31.3 kg/m2</div>
    </text>
    <code>
      <coding>
        <system value="http://loinc.org"/>
        <code value="39156-5"/>
        <display value="bmi"/>
      </coding>
    </code>
    <valueQuantity>
      <value value="31.3"/>
      <unit value="kg/m2"/>
      <system value="http://unitsofmeasure.org" />
      <code value="kg/m2"/>
    </valueQuantity>
    
    <effectiveDateTime value="2003-04-15"/>
    <status value="final"/>
    <reliability value="ok"/>
    <subject>
      <reference value="Patient/ID1291938"/>
    </subject>
    <encounter>
      <reference value="Encounter/ID783"/>
    </encounter>
    
  </Observation>
  
  </resource>
  <request>
    <method value="PUT"/>
    <url value="Observation/ID783-bmi"/>
  </request>
</entry>
<entry>
  <resource>
    
    
  <Observation>
  <id value="ID783-oxygensaturation"/>
    <text>
      <status value="generated"/>
      <div xmlns="http://www.w3.org/1999/xhtml">2003-04-15: oxygen_saturation = 97.0 %{HemoglobinSaturation}</div>
    </text>
    <code>
      <coding>
        <system value="http://loinc.org"/>
        <code value="2710-2"/>
        <display value="oxygen_saturation"/>
      </coding>
    </code>
    <valueQuantity>
      <value value="97.0"/>
      <unit value="%{HemoglobinSaturation}"/>
      <system value="http://unitsofmeasure.org" />
      <code value="%{HemoglobinSaturation}"/>
    </valueQuantity>
    
    <effectiveDateTime value="2003-04-15"/>
    <status value="final"/>
    <reliability value="ok"/>
    <subject>
      <reference value="Patient/ID1291938"/>
    </subject>
    <encounter>
      <reference value="Encounter/ID783"/>
    </encounter>
    
  </Observation>
  
  </resource>
  <request>
    <method value="PUT"/>
    <url value="Observation/ID783-oxygensaturation"/>
  </request>
</entry>
<entry>
  <resource>
    
    
  <Observation>
  <id value="ID784-height"/>
    <text>
      <status value="generated"/>
      <div xmlns="http://www.w3.org/1999/xhtml">2006-03-14: height = 171.45 cm</div>
    </text>
    <code>
      <coding>
        <system value="http://loinc.org"/>
        <code value="8302-2"/>
        <display value="height"/>
      </coding>
    </code>
    <valueQuantity>
      <value value="171.45"/>
      <unit value="cm"/>
      <system value="http://unitsofmeasure.org" />
      <code value="cm"/>
    </valueQuantity>
    
    <effectiveDateTime value="2006-03-14"/>
    <status value="final"/>
    <reliability value="ok"/>
    <subject>
      <reference value="Patient/ID1291938"/>
    </subject>
    <encounter>
      <reference value="Encounter/ID784"/>
    </encounter>
    
  </Observation>
  
  </resource>
  <request>
    <method value="PUT"/>
    <url value="Observation/ID784-height"/>
  </request>
</entry>
<entry>
  <resource>
    
    
  <Observation>
  <id value="ID784-heartrate"/>
    <text>
      <status value="generated"/>
      <div xmlns="http://www.w3.org/1999/xhtml">2006-03-14: heart_rate = 74.0 {beats}/min</div>
    </text>
    <code>
      <coding>
        <system value="http://loinc.org"/>
        <code value="8867-4"/>
        <display value="heart_rate"/>
      </coding>
    </code>
    <valueQuantity>
      <value value="74.0"/>
      <unit value="{beats}/min"/>
      <system value="http://unitsofmeasure.org" />
      <code value="{beats}/min"/>
    </valueQuantity>
    
    <effectiveDateTime value="2006-03-14"/>
    <status value="final"/>
    <reliability value="ok"/>
    <subject>
      <reference value="Patient/ID1291938"/>
    </subject>
    <encounter>
      <reference value="Encounter/ID784"/>
    </encounter>
    
  </Observation>
  
  </resource>
  <request>
    <method value="PUT"/>
    <url value="Observation/ID784-heartrate"/>
  </request>
</entry>
<entry>
  <resource>
    
    
  <Observation>
  <id value="ID784-respiratoryrate"/>
    <text>
      <status value="generated"/>
      <div xmlns="http://www.w3.org/1999/xhtml">2006-03-14: respiratory_rate = 19.0 {breaths}/min</div>
    </text>
    <code>
      <coding>
        <system value="http://loinc.org"/>
        <code value="9279-1"/>
        <display value="respiratory_rate"/>
      </coding>
    </code>
    <valueQuantity>
      <value value="19.0"/>
      <unit value="{breaths}/min"/>
      <system value="http://unitsofmeasure.org" />
      <code value="{breaths}/min"/>
    </valueQuantity>
    
    <effectiveDateTime value="2006-03-14"/>
    <status value="final"/>
    <reliability value="ok"/>
    <subject>
      <reference value="Patient/ID1291938"/>
    </subject>
    <encounter>
      <reference value="Encounter/ID784"/>
    </encounter>
    
  </Observation>
  
  </resource>
  <request>
    <method value="PUT"/>
    <url value="Observation/ID784-respiratoryrate"/>
  </request>
</entry>
<entry>
  <resource>
    
    
  <Observation>
  <id value="ID784-temperature"/>
    <text>
      <status value="generated"/>
      <div xmlns="http://www.w3.org/1999/xhtml">2006-03-14: temperature = 36.11111 Cel</div>
    </text>
    <code>
      <coding>
        <system value="http://loinc.org"/>
        <code value="8310-5"/>
        <display value="temperature"/>
      </coding>
    </code>
    <valueQuantity>
      <value value="36.11111"/>
      <unit value="Cel"/>
      <system value="http://unitsofmeasure.org" />
      <code value="Cel"/>
    </valueQuantity>
    
    <effectiveDateTime value="2006-03-14"/>
    <status value="final"/>
    <reliability value="ok"/>
    <subject>
      <reference value="Patient/ID1291938"/>
    </subject>
    <encounter>
      <reference value="Encounter/ID784"/>
    </encounter>
    
  </Observation>
  
  </resource>
  <request>
    <method value="PUT"/>
    <url value="Observation/ID784-temperature"/>
  </request>
</entry>
<entry>
  <resource>
    
    
  <Observation>
  <id value="ID784-weight"/>
    <text>
      <status value="generated"/>
      <div xmlns="http://www.w3.org/1999/xhtml">2006-03-14: weight = 90.31024 kg</div>
    </text>
    <code>
      <coding>
        <system value="http://loinc.org"/>
        <code value="3141-9"/>
        <display value="weight"/>
      </coding>
    </code>
    <valueQuantity>
      <value value="90.31024"/>
      <unit value="kg"/>
      <system value="http://unitsofmeasure.org" />
      <code value="kg"/>
    </valueQuantity>
    
    <effectiveDateTime value="2006-03-14"/>
    <status value="final"/>
    <reliability value="ok"/>
    <subject>
      <reference value="Patient/ID1291938"/>
    </subject>
    <encounter>
      <reference value="Encounter/ID784"/>
    </encounter>
    
  </Observation>
  
  </resource>
  <request>
    <method value="PUT"/>
    <url value="Observation/ID784-weight"/>
  </request>
</entry>
<entry>
  <resource>
    
    
  <Observation>
  <id value="ID784-bmi"/>
    <text>
      <status value="generated"/>
      <div xmlns="http://www.w3.org/1999/xhtml">2006-03-14: bmi = 30.7 kg/m2</div>
    </text>
    <code>
      <coding>
        <system value="http://loinc.org"/>
        <code value="39156-5"/>
        <display value="bmi"/>
      </coding>
    </code>
    <valueQuantity>
      <value value="30.7"/>
      <unit value="kg/m2"/>
      <system value="http://unitsofmeasure.org" />
      <code value="kg/m2"/>
    </valueQuantity>
    
    <effectiveDateTime value="2006-03-14"/>
    <status value="final"/>
    <reliability value="ok"/>
    <subject>
      <reference value="Patient/ID1291938"/>
    </subject>
    <encounter>
      <reference value="Encounter/ID784"/>
    </encounter>
    
  </Observation>
  
  </resource>
  <request>
    <method value="PUT"/>
    <url value="Observation/ID784-bmi"/>
  </request>
</entry>
<entry>
  <resource>
    
    
  <Observation>
  <id value="ID784-oxygensaturation"/>
    <text>
      <status value="generated"/>
      <div xmlns="http://www.w3.org/1999/xhtml">2006-03-14: oxygen_saturation = 98.0 %{HemoglobinSaturation}</div>
    </text>
    <code>
      <coding>
        <system value="http://loinc.org"/>
        <code value="2710-2"/>
        <display value="oxygen_saturation"/>
      </coding>
    </code>
    <valueQuantity>
      <value value="98.0"/>
      <unit value="%{HemoglobinSaturation}"/>
      <system value="http://unitsofmeasure.org" />
      <code value="%{HemoglobinSaturation}"/>
    </valueQuantity>
    
    <effectiveDateTime value="2006-03-14"/>
    <status value="final"/>
    <reliability value="ok"/>
    <subject>
      <reference value="Patient/ID1291938"/>
    </subject>
    <encounter>
      <reference value="Encounter/ID784"/>
    </encounter>
    
  </Observation>
  
  </resource>
  <request>
    <method value="PUT"/>
    <url value="Observation/ID784-oxygensaturation"/>
  </request>
</entry>
<entry>
  <resource>
    
    
  <Observation>
  <id value="ID785-height"/>
    <text>
      <status value="generated"/>
      <div xmlns="http://www.w3.org/1999/xhtml">2006-03-15: height = 172.212 cm</div>
    </text>
    <code>
      <coding>
        <system value="http://loinc.org"/>
        <code value="8302-2"/>
        <display value="height"/>
      </coding>
    </code>
    <valueQuantity>
      <value value="172.212"/>
      <unit value="cm"/>
      <system value="http://unitsofmeasure.org" />
      <code value="cm"/>
    </valueQuantity>
    
    <effectiveDateTime value="2006-03-15"/>
    <status value="final"/>
    <reliability value="ok"/>
    <subject>
      <reference value="Patient/ID1291938"/>
    </subject>
    <encounter>
      <reference value="Encounter/ID785"/>
    </encounter>
    
  </Observation>
  
  </resource>
  <request>
    <method value="PUT"/>
    <url value="Observation/ID785-height"/>
  </request>
</entry>
<entry>
  <resource>
    
    
  <Observation>
  <id value="ID785-heartrate"/>
    <text>
      <status value="generated"/>
      <div xmlns="http://www.w3.org/1999/xhtml">2006-03-15: heart_rate = 73.0 {beats}/min</div>
    </text>
    <code>
      <coding>
        <system value="http://loinc.org"/>
        <code value="8867-4"/>
        <display value="heart_rate"/>
      </coding>
    </code>
    <valueQuantity>
      <value value="73.0"/>
      <unit value="{beats}/min"/>
      <system value="http://unitsofmeasure.org" />
      <code value="{beats}/min"/>
    </valueQuantity>
    
    <effectiveDateTime value="2006-03-15"/>
    <status value="final"/>
    <reliability value="ok"/>
    <subject>
      <reference value="Patient/ID1291938"/>
    </subject>
    <encounter>
      <reference value="Encounter/ID785"/>
    </encounter>
    
  </Observation>
  
  </resource>
  <request>
    <method value="PUT"/>
    <url value="Observation/ID785-heartrate"/>
  </request>
</entry>
<entry>
  <resource>
    
    
  <Observation>
  <id value="ID785-respiratoryrate"/>
    <text>
      <status value="generated"/>
      <div xmlns="http://www.w3.org/1999/xhtml">2006-03-15: respiratory_rate = 19.0 {breaths}/min</div>
    </text>
    <code>
      <coding>
        <system value="http://loinc.org"/>
        <code value="9279-1"/>
        <display value="respiratory_rate"/>
      </coding>
    </code>
    <valueQuantity>
      <value value="19.0"/>
      <unit value="{breaths}/min"/>
      <system value="http://unitsofmeasure.org" />
      <code value="{breaths}/min"/>
    </valueQuantity>
    
    <effectiveDateTime value="2006-03-15"/>
    <status value="final"/>
    <reliability value="ok"/>
    <subject>
      <reference value="Patient/ID1291938"/>
    </subject>
    <encounter>
      <reference value="Encounter/ID785"/>
    </encounter>
    
  </Observation>
  
  </resource>
  <request>
    <method value="PUT"/>
    <url value="Observation/ID785-respiratoryrate"/>
  </request>
</entry>
<entry>
  <resource>
    
    
  <Observation>
  <id value="ID785-temperature"/>
    <text>
      <status value="generated"/>
      <div xmlns="http://www.w3.org/1999/xhtml">2006-03-15: temperature = 36.05556 Cel</div>
    </text>
    <code>
      <coding>
        <system value="http://loinc.org"/>
        <code value="8310-5"/>
        <display value="temperature"/>
      </coding>
    </code>
    <valueQuantity>
      <value value="36.05556"/>
      <unit value="Cel"/>
      <system value="http://unitsofmeasure.org" />
      <code value="Cel"/>
    </valueQuantity>
    
    <effectiveDateTime value="2006-03-15"/>
    <status value="final"/>
    <reliability value="ok"/>
    <subject>
      <reference value="Patient/ID1291938"/>
    </subject>
    <encounter>
      <reference value="Encounter/ID785"/>
    </encounter>
    
  </Observation>
  
  </resource>
  <request>
    <method value="PUT"/>
    <url value="Observation/ID785-temperature"/>
  </request>
</entry>
<entry>
  <resource>
    
    
  <Observation>
  <id value="ID785-weight"/>
    <text>
      <status value="generated"/>
      <div xmlns="http://www.w3.org/1999/xhtml">2006-03-15: weight = 88.08764 kg</div>
    </text>
    <code>
      <coding>
        <system value="http://loinc.org"/>
        <code value="3141-9"/>
        <display value="weight"/>
      </coding>
    </code>
    <valueQuantity>
      <value value="88.08764"/>
      <unit value="kg"/>
      <system value="http://unitsofmeasure.org" />
      <code value="kg"/>
    </valueQuantity>
    
    <effectiveDateTime value="2006-03-15"/>
    <status value="final"/>
    <reliability value="ok"/>
    <subject>
      <reference value="Patient/ID1291938"/>
    </subject>
    <encounter>
      <reference value="Encounter/ID785"/>
    </encounter>
    
  </Observation>
  
  </resource>
  <request>
    <method value="PUT"/>
    <url value="Observation/ID785-weight"/>
  </request>
</entry>
<entry>
  <resource>
    
    
  <Observation>
  <id value="ID785-bmi"/>
    <text>
      <status value="generated"/>
      <div xmlns="http://www.w3.org/1999/xhtml">2006-03-15: bmi = 29.7 kg/m2</div>
    </text>
    <code>
      <coding>
        <system value="http://loinc.org"/>
        <code value="39156-5"/>
        <display value="bmi"/>
      </coding>
    </code>
    <valueQuantity>
      <value value="29.7"/>
      <unit value="kg/m2"/>
      <system value="http://unitsofmeasure.org" />
      <code value="kg/m2"/>
    </valueQuantity>
    
    <effectiveDateTime value="2006-03-15"/>
    <status value="final"/>
    <reliability value="ok"/>
    <subject>
      <reference value="Patient/ID1291938"/>
    </subject>
    <encounter>
      <reference value="Encounter/ID785"/>
    </encounter>
    
  </Observation>
  
  </resource>
  <request>
    <method value="PUT"/>
    <url value="Observation/ID785-bmi"/>
  </request>
</entry>
<entry>
  <resource>
    
    
  <Observation>
  <id value="ID785-oxygensaturation"/>
    <text>
      <status value="generated"/>
      <div xmlns="http://www.w3.org/1999/xhtml">2006-03-15: oxygen_saturation = 98.0 %{HemoglobinSaturation}</div>
    </text>
    <code>
      <coding>
        <system value="http://loinc.org"/>
        <code value="2710-2"/>
        <display value="oxygen_saturation"/>
      </coding>
    </code>
    <valueQuantity>
      <value value="98.0"/>
      <unit value="%{HemoglobinSaturation}"/>
      <system value="http://unitsofmeasure.org" />
      <code value="%{HemoglobinSaturation}"/>
    </valueQuantity>
    
    <effectiveDateTime value="2006-03-15"/>
    <status value="final"/>
    <reliability value="ok"/>
    <subject>
      <reference value="Patient/ID1291938"/>
    </subject>
    <encounter>
      <reference value="Encounter/ID785"/>
    </encounter>
    
  </Observation>
  
  </resource>
  <request>
    <method value="PUT"/>
    <url value="Observation/ID785-oxygensaturation"/>
  </request>
</entry>
<entry>
  <resource>
    
    
  <Observation>
  <id value="ID786-height"/>
    <text>
      <status value="generated"/>
      <div xmlns="http://www.w3.org/1999/xhtml">2006-03-16: height = 171.704 cm</div>
    </text>
    <code>
      <coding>
        <system value="http://loinc.org"/>
        <code value="8302-2"/>
        <display value="height"/>
      </coding>
    </code>
    <valueQuantity>
      <value value="171.704"/>
      <unit value="cm"/>
      <system value="http://unitsofmeasure.org" />
      <code value="cm"/>
    </valueQuantity>
    
    <effectiveDateTime value="2006-03-16"/>
    <status value="final"/>
    <reliability value="ok"/>
    <subject>
      <reference value="Patient/ID1291938"/>
    </subject>
    <encounter>
      <reference value="Encounter/ID786"/>
    </encounter>
    
  </Observation>
  
  </resource>
  <request>
    <method value="PUT"/>
    <url value="Observation/ID786-height"/>
  </request>
</entry>
<entry>
  <resource>
    
    
  <Observation>
  <id value="ID786-heartrate"/>
    <text>
      <status value="generated"/>
      <div xmlns="http://www.w3.org/1999/xhtml">2006-03-16: heart_rate = 72.0 {beats}/min</div>
    </text>
    <code>
      <coding>
        <system value="http://loinc.org"/>
        <code value="8867-4"/>
        <display value="heart_rate"/>
      </coding>
    </code>
    <valueQuantity>
      <value value="72.0"/>
      <unit value="{beats}/min"/>
      <system value="http://unitsofmeasure.org" />
      <code value="{beats}/min"/>
    </valueQuantity>
    
    <effectiveDateTime value="2006-03-16"/>
    <status value="final"/>
    <reliability value="ok"/>
    <subject>
      <reference value="Patient/ID1291938"/>
    </subject>
    <encounter>
      <reference value="Encounter/ID786"/>
    </encounter>
    
  </Observation>
  
  </resource>
  <request>
    <method value="PUT"/>
    <url value="Observation/ID786-heartrate"/>
  </request>
</entry>
<entry>
  <resource>
    
    
  <Observation>
  <id value="ID786-respiratoryrate"/>
    <text>
      <status value="generated"/>
      <div xmlns="http://www.w3.org/1999/xhtml">2006-03-16: respiratory_rate = 19.0 {breaths}/min</div>
    </text>
    <code>
      <coding>
        <system value="http://loinc.org"/>
        <code value="9279-1"/>
        <display value="respiratory_rate"/>
      </coding>
    </code>
    <valueQuantity>
      <value value="19.0"/>
      <unit value="{breaths}/min"/>
      <system value="http://unitsofmeasure.org" />
      <code value="{breaths}/min"/>
    </valueQuantity>
    
    <effectiveDateTime value="2006-03-16"/>
    <status value="final"/>
    <reliability value="ok"/>
    <subject>
      <reference value="Patient/ID1291938"/>
    </subject>
    <encounter>
      <reference value="Encounter/ID786"/>
    </encounter>
    
  </Observation>
  
  </resource>
  <request>
    <method value="PUT"/>
    <url value="Observation/ID786-respiratoryrate"/>
  </request>
</entry>
<entry>
  <resource>
    
    
  <Observation>
  <id value="ID786-temperature"/>
    <text>
      <status value="generated"/>
      <div xmlns="http://www.w3.org/1999/xhtml">2006-03-16: temperature = 36.05556 Cel</div>
    </text>
    <code>
      <coding>
        <system value="http://loinc.org"/>
        <code value="8310-5"/>
        <display value="temperature"/>
      </coding>
    </code>
    <valueQuantity>
      <value value="36.05556"/>
      <unit value="Cel"/>
      <system value="http://unitsofmeasure.org" />
      <code value="Cel"/>
    </valueQuantity>
    
    <effectiveDateTime value="2006-03-16"/>
    <status value="final"/>
    <reliability value="ok"/>
    <subject>
      <reference value="Patient/ID1291938"/>
    </subject>
    <encounter>
      <reference value="Encounter/ID786"/>
    </encounter>
    
  </Observation>
  
  </resource>
  <request>
    <method value="PUT"/>
    <url value="Observation/ID786-temperature"/>
  </request>
</entry>
<entry>
  <resource>
    
    
  <Observation>
  <id value="ID786-weight"/>
    <text>
      <status value="generated"/>
      <div xmlns="http://www.w3.org/1999/xhtml">2006-03-16: weight = 93.12251 kg</div>
    </text>
    <code>
      <coding>
        <system value="http://loinc.org"/>
        <code value="3141-9"/>
        <display value="weight"/>
      </coding>
    </code>
    <valueQuantity>
      <value value="93.12251"/>
      <unit value="kg"/>
      <system value="http://unitsofmeasure.org" />
      <code value="kg"/>
    </valueQuantity>
    
    <effectiveDateTime value="2006-03-16"/>
    <status value="final"/>
    <reliability value="ok"/>
    <subject>
      <reference value="Patient/ID1291938"/>
    </subject>
    <encounter>
      <reference value="Encounter/ID786"/>
    </encounter>
    
  </Observation>
  
  </resource>
  <request>
    <method value="PUT"/>
    <url value="Observation/ID786-weight"/>
  </request>
</entry>
<entry>
  <resource>
    
    
  <Observation>
  <id value="ID786-bmi"/>
    <text>
      <status value="generated"/>
      <div xmlns="http://www.w3.org/1999/xhtml">2006-03-16: bmi = 31.6 kg/m2</div>
    </text>
    <code>
      <coding>
        <system value="http://loinc.org"/>
        <code value="39156-5"/>
        <display value="bmi"/>
      </coding>
    </code>
    <valueQuantity>
      <value value="31.6"/>
      <unit value="kg/m2"/>
      <system value="http://unitsofmeasure.org" />
      <code value="kg/m2"/>
    </valueQuantity>
    
    <effectiveDateTime value="2006-03-16"/>
    <status value="final"/>
    <reliability value="ok"/>
    <subject>
      <reference value="Patient/ID1291938"/>
    </subject>
    <encounter>
      <reference value="Encounter/ID786"/>
    </encounter>
    
  </Observation>
  
  </resource>
  <request>
    <method value="PUT"/>
    <url value="Observation/ID786-bmi"/>
  </request>
</entry>
<entry>
  <resource>
    
    
  <Observation>
  <id value="ID786-oxygensaturation"/>
    <text>
      <status value="generated"/>
      <div xmlns="http://www.w3.org/1999/xhtml">2006-03-16: oxygen_saturation = 98.0 %{HemoglobinSaturation}</div>
    </text>
    <code>
      <coding>
        <system value="http://loinc.org"/>
        <code value="2710-2"/>
        <display value="oxygen_saturation"/>
      </coding>
    </code>
    <valueQuantity>
      <value value="98.0"/>
      <unit value="%{HemoglobinSaturation}"/>
      <system value="http://unitsofmeasure.org" />
      <code value="%{HemoglobinSaturation}"/>
    </valueQuantity>
    
    <effectiveDateTime value="2006-03-16"/>
    <status value="final"/>
    <reliability value="ok"/>
    <subject>
      <reference value="Patient/ID1291938"/>
    </subject>
    <encounter>
      <reference value="Encounter/ID786"/>
    </encounter>
    
  </Observation>
  
  </resource>
  <request>
    <method value="PUT"/>
    <url value="Observation/ID786-oxygensaturation"/>
  </request>
</entry>
  <entry>
  <resource>
    
    
  <Condition>
  <id value="ID1-c"/>
    <text>
     <status value="generated"/>
     <div xmlns="http://www.w3.org/1999/xhtml">Primary malignant neoplasm of female breast</div>   
   </text>
    <patient>
      <reference value="Patient/ID1291938"/>
    </patient>
    <code> 
      <coding>
        <system value="http://snomed.info/sct"/>
        <code value="254837009"/>
        <display value="Primary malignant neoplasm of female breast"/>
      </coding>
      <text value="Primary malignant neoplasm of female breast"/>
    </code>
   <clinicalStatus value="confirmed"/>
   <onsetDateTime value="2007-05-23"/>
   
  </Condition>
  
  </resource>
  <request>
    <method value="PUT"/>
    <url value="Condition/ID1-c"/>
  </request>
</entry>
  <entry>
  <resource>
    
    
  <Condition>
  <id value="ID2-c"/>
    <text>
     <status value="generated"/>
     <div xmlns="http://www.w3.org/1999/xhtml">Breast lump</div>   
   </text>
    <patient>
      <reference value="Patient/ID1291938"/>
    </patient>
    <code> 
      <coding>
        <system value="http://snomed.info/sct"/>
        <code value="89164003"/>
        <display value="Breast lump"/>
      </coding>
      <text value="Breast lump"/>
    </code>
   <clinicalStatus value="confirmed"/>
   <onsetDateTime value="2007-06-05"/>
   
  </Condition>
  
  </resource>
  <request>
    <method value="PUT"/>
    <url value="Condition/ID2-c"/>
  </request>
</entry>
  <entry>
  <resource>
    
    
  <Condition>
  <id value="ID3-c"/>
    <text>
     <status value="generated"/>
     <div xmlns="http://www.w3.org/1999/xhtml">Carcinoma in situ of breast</div>   
   </text>
    <patient>
      <reference value="Patient/ID1291938"/>
    </patient>
    <code> 
      <coding>
        <system value="http://snomed.info/sct"/>
        <code value="189336000"/>
        <display value="Carcinoma in situ of breast"/>
      </coding>
      <text value="Carcinoma in situ of breast"/>
    </code>
   <clinicalStatus value="confirmed"/>
   <onsetDateTime value="2007-06-19"/>
   
  </Condition>
  
  </resource>
  <request>
    <method value="PUT"/>
    <url value="Condition/ID3-c"/>
  </request>
</entry>
  <entry>
  <resource>
    
    
  <Condition>
  <id value="ID4-c"/>
    <text>
     <status value="generated"/>
     <div xmlns="http://www.w3.org/1999/xhtml">Needs influenza immunization</div>   
   </text>
    <patient>
      <reference value="Patient/ID1291938"/>
    </patient>
    <code> 
      <coding>
        <system value="http://snomed.info/sct"/>
        <code value="185903001"/>
        <display value="Needs influenza immunization"/>
      </coding>
      <text value="Needs influenza immunization"/>
    </code>
   <clinicalStatus value="confirmed"/>
   <onsetDateTime value="2007-07-17"/>
   
  </Condition>
  
  </resource>
  <request>
    <method value="PUT"/>
    <url value="Condition/ID4-c"/>
  </request>
</entry>
  <entry>
  <resource>
    
    
  <Condition>
  <id value="ID5-c"/>
    <text>
     <status value="generated"/>
     <div xmlns="http://www.w3.org/1999/xhtml">Asymptomatic postmenopausal status (age-related) (natural)</div>   
   </text>
    <patient>
      <reference value="Patient/ID1291938"/>
    </patient>
    <code> 
      <coding>
        <system value="http://snomed.info/sct"/>
        <code value="76498008"/>
        <display value="Asymptomatic postmenopausal status (age-related) (natural)"/>
      </coding>
      <text value="Asymptomatic postmenopausal status (age-related) (natural)"/>
    </code>
   <clinicalStatus value="confirmed"/>
   <onsetDateTime value="2007-12-20"/>
   
  </Condition>
  
  </resource>
  <request>
    <method value="PUT"/>
    <url value="Condition/ID5-c"/>
  </request>
</entry>
  <entry>
  <resource>
    
    
  <Condition>
  <id value="ID6-c"/>
    <text>
     <status value="generated"/>
     <div xmlns="http://www.w3.org/1999/xhtml">Ovarian failure</div>   
   </text>
    <patient>
      <reference value="Patient/ID1291938"/>
    </patient>
    <code> 
      <coding>
        <system value="http://snomed.info/sct"/>
        <code value="16041008"/>
        <display value="Ovarian failure"/>
      </coding>
      <text value="Ovarian failure"/>
    </code>
   <clinicalStatus value="confirmed"/>
   <onsetDateTime value="2007-12-20"/>
   
  </Condition>
  
  </resource>
  <request>
    <method value="PUT"/>
    <url value="Condition/ID6-c"/>
  </request>
</entry>
  <entry>
  <resource>
    
    
  <Condition>
  <id value="ID7-c"/>
    <text>
     <status value="generated"/>
     <div xmlns="http://www.w3.org/1999/xhtml">Senile nuclear sclerosis</div>   
   </text>
    <patient>
      <reference value="Patient/ID1291938"/>
    </patient>
    <code> 
      <coding>
        <system value="http://snomed.info/sct"/>
        <code value="193589009"/>
        <display value="Senile nuclear sclerosis"/>
      </coding>
      <text value="Senile nuclear sclerosis"/>
    </code>
   <clinicalStatus value="confirmed"/>
   <onsetDateTime value="2008-02-07"/>
   
  </Condition>
  
  </resource>
  <request>
    <method value="PUT"/>
    <url value="Condition/ID7-c"/>
  </request>
</entry>
  <entry>
  <resource>
    
    
  <Condition>
  <id value="ID8-c"/>
    <text>
     <status value="generated"/>
     <div xmlns="http://www.w3.org/1999/xhtml">Neoplasm of breast</div>   
   </text>
    <patient>
      <reference value="Patient/ID1291938"/>
    </patient>
    <code> 
      <coding>
        <system value="http://snomed.info/sct"/>
        <code value="126926005"/>
        <display value="Neoplasm of breast"/>
      </coding>
      <text value="Neoplasm of breast"/>
    </code>
   <clinicalStatus value="confirmed"/>
   <onsetDateTime value="2008-02-28"/>
   
  </Condition>
  
  </resource>
  <request>
    <method value="PUT"/>
    <url value="Condition/ID8-c"/>
  </request>
</entry>
  <entry>
  <resource>
    
    
  <Condition>
  <id value="ID9-c"/>
    <text>
     <status value="generated"/>
     <div xmlns="http://www.w3.org/1999/xhtml">Postprocedural state finding</div>   
   </text>
    <patient>
      <reference value="Patient/ID1291938"/>
    </patient>
    <code> 
      <coding>
        <system value="http://snomed.info/sct"/>
        <code value="213299007"/>
        <display value="Postprocedural state finding"/>
      </coding>
      <text value="Postprocedural state finding"/>
    </code>
   <clinicalStatus value="confirmed"/>
   <onsetDateTime value="2008-02-28"/>
   
  </Condition>
  
  </resource>
  <request>
    <method value="PUT"/>
    <url value="Condition/ID9-c"/>
  </request>
</entry>
  <entry>
  <resource>
    
    
  <Condition>
  <id value="ID10-c"/>
    <text>
     <status value="generated"/>
     <div xmlns="http://www.w3.org/1999/xhtml">H/O: artificial eye lens</div>   
   </text>
    <patient>
      <reference value="Patient/ID1291938"/>
    </patient>
    <code> 
      <coding>
        <system value="http://snomed.info/sct"/>
        <code value="309523001"/>
        <display value="H/O: artificial eye lens"/>
      </coding>
      <text value="H/O: artificial eye lens"/>
    </code>
   <clinicalStatus value="confirmed"/>
   <onsetDateTime value="2008-04-18"/>
   
  </Condition>
  
  </resource>
  <request>
    <method value="PUT"/>
    <url value="Condition/ID10-c"/>
  </request>
</entry>
  <entry>
  <resource>
    
    
  <Condition>
  <id value="ID11-c"/>
    <text>
     <status value="generated"/>
     <div xmlns="http://www.w3.org/1999/xhtml">Abnormal weight loss</div>   
   </text>
    <patient>
      <reference value="Patient/ID1291938"/>
    </patient>
    <code> 
      <coding>
        <system value="http://snomed.info/sct"/>
        <code value="267024001"/>
        <display value="Abnormal weight loss"/>
      </coding>
      <text value="Abnormal weight loss"/>
    </code>
   <clinicalStatus value="confirmed"/>
   <onsetDateTime value="2008-11-19"/>
   
  </Condition>
  
  </resource>
  <request>
    <method value="PUT"/>
    <url value="Condition/ID11-c"/>
  </request>
</entry>
  <entry>
  <resource>
    
    
  <Condition>
  <id value="ID12-c"/>
    <text>
     <status value="generated"/>
     <div xmlns="http://www.w3.org/1999/xhtml">Essential hypertension</div>   
   </text>
    <patient>
      <reference value="Patient/ID1291938"/>
    </patient>
    <code> 
      <coding>
        <system value="http://snomed.info/sct"/>
        <code value="38341003"/>
        <display value="Essential hypertension"/>
      </coding>
      <text value="Essential hypertension"/>
    </code>
   <clinicalStatus value="confirmed"/>
   <onsetDateTime value="2009-06-17"/>
   
  </Condition>
  
  </resource>
  <request>
    <method value="PUT"/>
    <url value="Condition/ID12-c"/>
  </request>
</entry>
  <entry>
  <resource>
    
    
  <Condition>
  <id value="ID13-c"/>
    <text>
     <status value="generated"/>
     <div xmlns="http://www.w3.org/1999/xhtml">Hyperlipidemia</div>   
   </text>
    <patient>
      <reference value="Patient/ID1291938"/>
    </patient>
    <code> 
      <coding>
        <system value="http://snomed.info/sct"/>
        <code value="55822004"/>
        <display value="Hyperlipidemia"/>
      </coding>
      <text value="Hyperlipidemia"/>
    </code>
   <clinicalStatus value="confirmed"/>
   <onsetDateTime value="2009-06-17"/>
   
  </Condition>
  
  </resource>
  <request>
    <method value="PUT"/>
    <url value="Condition/ID13-c"/>
  </request>
</entry>
  <entry>
  <resource>
    
    
  <Procedure>
  <id value="ID1-p"/>
   <text>
     <status value="generated"/>
     <div xmlns="http://www.w3.org/1999/xhtml">Alcohol rehabilitation</div>   
   </text>
   <patient>
      <reference value="Patient/ID1291938"/>
   </patient>
   <type> 
      <coding>
        <system value="http://snomed.info/sct"/>
        <code value="35637008"/>
        <display value="Alcohol rehabilitation"/>
      </coding>
      <text value="Alcohol rehabilitation"/>
   </type>
   <performedDateTime value="2002-05-23"/>
  </Procedure>
  
  </resource>
  <request>
    <method value="PUT"/>
    <url value="Procedure/ID1-p"/>
  </request>
</entry>
  <entry>
  <resource>
    
    
  <Procedure>
  <id value="ID2-p"/>
   <text>
     <status value="generated"/>
     <div xmlns="http://www.w3.org/1999/xhtml">Smoking cessation assistance</div>   
   </text>
   <patient>
      <reference value="Patient/ID1291938"/>
   </patient>
   <type> 
      <coding>
        <system value="http://snomed.info/sct"/>
        <code value="384742004"/>
        <display value="Smoking cessation assistance"/>
      </coding>
      <text value="Smoking cessation assistance"/>
   </type>
   <performedDateTime value="2000-02-12"/>
  </Procedure>
  
  </resource>
  <request>
    <method value="PUT"/>
    <url value="Procedure/ID2-p"/>
  </request>
</entry>
<entry>
  <resource>
    
    
  <Observation>
  <id value="ID47-smokingstatus"/>
    <text>
      <status value="generated"/>
      <div xmlns="http://www.w3.org/1999/xhtml">Tobacco smoking status: Never smoker</div>
    </text>
    <code>
      <coding>
        <system value="http://loinc.org"/>
        <code value="72166-2"/>
        <display value="Tobacco smoking status"/>
      </coding>
    </code>
    <valueCodeableConcept>
      <coding>
        <system value="http://snomed.info/sct"/>
        <code value="266919005"/>
        <display value="Never smoker"/>
      </coding>
    </valueCodeableConcept>
    <status value="final"/>
    <reliability value="ok"/>
    <subject>
      <reference value="Patient/ID1291938"/>
    </subject>
  </Observation>
  
  </resource>
  <request>
    <method value="PUT"/>
    <url value="Observation/ID47-smokingstatus"/>
  </request>
</entry>
  <entry>
  <resource>
    
    
    <List>
  <id value="ID29-l"/>
        <text>
            <status value="generated"/>
            <div xmlns="http://www.w3.org/1999/xhtml">No known allergies</div>
        </text>
        <code>
            <coding>
               <system value="http://loinc.org/"/>
               <code value="52473-6"/>
               <display value="Allergy"/>
            </coding>
        </code>
        <subject>
          <reference value="Patient/ID1291938"/>
        </subject>
        <date value="2000"/>
        <mode value="snapshot"/>
        <emptyReason>
            <coding>
                <system value="http://hl7.org/fhir/list-empty-reason"/>
                <code value="nilknown"/>
                <display value="Nil Known"/>
            </coding>
        </emptyReason>
    </List>
  
  </resource>
  <request>
    <method value="PUT"/>
    <url value="List/ID29-l"/>
  </request>
</entry>

</Bundle>
