<?xml version="1.0" encoding="UTF-8"?>
<Bundle xmlns="http://hl7.org/fhir">
    <type value="transaction"/>

  <entry>
  <resource>
    
    
  <Patient>
    <id value="ID7777704"/>
    <text>
      <status value="generated"/>
      <div xmlns="http://www.w3.org/1999/xhtml">
        <p>Kimberly Revis</p>
      </div>
    </text>
    <identifier>
      <use value="usual"/>
      <type>
        <coding>
          <system value="http://hl7.org/fhir/v2/0203"/>
          <code value="MR"/>
          <display value="Medical record number"/>
        </coding>
      </type>
      <system value="http://hospital.smarthealthit.org"/>
      <value value="7777704"/>
    </identifier>
    <name>
      <use value="official"/>
      <family value="Revis"/>
      <given value="Kimberly"/>
    </name>
    <gender value="female" />
    <birthDate value="2003-08-16" />
    <active value="true"/>
  </Patient>
  
  </resource>
  <transaction>
    <method value="PUT"/>
    <url value="Patient/ID7777704"/>
  </transaction>
</entry>
  <entry>
  <resource>
    
    
    <Encounter>
  <id value="ID1009"/>
      <text>
        <status value="generated"/>
        <div xmlns="http://www.w3.org/1999/xhtml">2005-09-21: ambulatory encounter</div>
      </text>
      <status value="finished"/>
      <class value="ambulatory"/>
      <patient>
        <reference value="Patient/ID7777704"/>
      </patient>
      <period>
       <start value="2005-09-21"/>
       <end value="2005-09-21"/>
      </period>
    </Encounter>
  
  </resource>
  <transaction>
    <method value="PUT"/>
    <url value="Encounter/ID1009"/>
  </transaction>
</entry>
  <entry>
  <resource>
    
    
    <Encounter>
  <id value="ID1010"/>
      <text>
        <status value="generated"/>
        <div xmlns="http://www.w3.org/1999/xhtml">2005-10-27: ambulatory encounter</div>
      </text>
      <status value="finished"/>
      <class value="ambulatory"/>
      <patient>
        <reference value="Patient/ID7777704"/>
      </patient>
      <period>
       <start value="2005-10-27"/>
       <end value="2005-10-27"/>
      </period>
    </Encounter>
  
  </resource>
  <transaction>
    <method value="PUT"/>
    <url value="Encounter/ID1010"/>
  </transaction>
</entry>
  <entry>
  <resource>
    
    
    <Encounter>
  <id value="ID1011"/>
      <text>
        <status value="generated"/>
        <div xmlns="http://www.w3.org/1999/xhtml">2006-02-14: ambulatory encounter</div>
      </text>
      <status value="finished"/>
      <class value="ambulatory"/>
      <patient>
        <reference value="Patient/ID7777704"/>
      </patient>
      <period>
       <start value="2006-02-14"/>
       <end value="2006-02-14"/>
      </period>
    </Encounter>
  
  </resource>
  <transaction>
    <method value="PUT"/>
    <url value="Encounter/ID1011"/>
  </transaction>
</entry>
  <entry>
  <resource>
    
    
    <Encounter>
  <id value="ID1012"/>
      <text>
        <status value="generated"/>
        <div xmlns="http://www.w3.org/1999/xhtml">2006-09-21: ambulatory encounter</div>
      </text>
      <status value="finished"/>
      <class value="ambulatory"/>
      <patient>
        <reference value="Patient/ID7777704"/>
      </patient>
      <period>
       <start value="2006-09-21"/>
       <end value="2006-09-21"/>
      </period>
    </Encounter>
  
  </resource>
  <transaction>
    <method value="PUT"/>
    <url value="Encounter/ID1012"/>
  </transaction>
</entry>
  <entry>
  <resource>
    
    
    <Encounter>
  <id value="ID1013"/>
      <text>
        <status value="generated"/>
        <div xmlns="http://www.w3.org/1999/xhtml">2006-10-27: ambulatory encounter</div>
      </text>
      <status value="finished"/>
      <class value="ambulatory"/>
      <patient>
        <reference value="Patient/ID7777704"/>
      </patient>
      <period>
       <start value="2006-10-27"/>
       <end value="2006-10-27"/>
      </period>
    </Encounter>
  
  </resource>
  <transaction>
    <method value="PUT"/>
    <url value="Encounter/ID1013"/>
  </transaction>
</entry>
  <entry>
  <resource>
    
    
    <Encounter>
  <id value="ID1014"/>
      <text>
        <status value="generated"/>
        <div xmlns="http://www.w3.org/1999/xhtml">2007-06-03: ambulatory encounter</div>
      </text>
      <status value="finished"/>
      <class value="ambulatory"/>
      <patient>
        <reference value="Patient/ID7777704"/>
      </patient>
      <period>
       <start value="2007-06-03"/>
       <end value="2007-06-03"/>
      </period>
    </Encounter>
  
  </resource>
  <transaction>
    <method value="PUT"/>
    <url value="Encounter/ID1014"/>
  </transaction>
</entry>
  <entry>
  <resource>
    
    
    <Encounter>
  <id value="ID1015"/>
      <text>
        <status value="generated"/>
        <div xmlns="http://www.w3.org/1999/xhtml">2007-08-15: ambulatory encounter</div>
      </text>
      <status value="finished"/>
      <class value="ambulatory"/>
      <patient>
        <reference value="Patient/ID7777704"/>
      </patient>
      <period>
       <start value="2007-08-15"/>
       <end value="2007-08-15"/>
      </period>
    </Encounter>
  
  </resource>
  <transaction>
    <method value="PUT"/>
    <url value="Encounter/ID1015"/>
  </transaction>
</entry>
  <entry>
  <resource>
    
    
    <Encounter>
  <id value="ID1016"/>
      <text>
        <status value="generated"/>
        <div xmlns="http://www.w3.org/1999/xhtml">2007-10-27: ambulatory encounter</div>
      </text>
      <status value="finished"/>
      <class value="ambulatory"/>
      <patient>
        <reference value="Patient/ID7777704"/>
      </patient>
      <period>
       <start value="2007-10-27"/>
       <end value="2007-10-27"/>
      </period>
    </Encounter>
  
  </resource>
  <transaction>
    <method value="PUT"/>
    <url value="Encounter/ID1016"/>
  </transaction>
</entry>
  <entry>
  <resource>
    
    
    <Encounter>
  <id value="ID1017"/>
      <text>
        <status value="generated"/>
        <div xmlns="http://www.w3.org/1999/xhtml">2008-02-14: ambulatory encounter</div>
      </text>
      <status value="finished"/>
      <class value="ambulatory"/>
      <patient>
        <reference value="Patient/ID7777704"/>
      </patient>
      <period>
       <start value="2008-02-14"/>
       <end value="2008-02-14"/>
      </period>
    </Encounter>
  
  </resource>
  <transaction>
    <method value="PUT"/>
    <url value="Encounter/ID1017"/>
  </transaction>
</entry>
  <entry>
  <resource>
    
    
    <Encounter>
  <id value="ID1018"/>
      <text>
        <status value="generated"/>
        <div xmlns="http://www.w3.org/1999/xhtml">2010-03-21: ambulatory encounter</div>
      </text>
      <status value="finished"/>
      <class value="ambulatory"/>
      <patient>
        <reference value="Patient/ID7777704"/>
      </patient>
      <period>
       <start value="2010-03-21"/>
       <end value="2010-03-21"/>
      </period>
    </Encounter>
  
  </resource>
  <transaction>
    <method value="PUT"/>
    <url value="Encounter/ID1018"/>
  </transaction>
</entry>
  <entry>
  <resource>
    
    
    <Encounter>
  <id value="ID1019"/>
      <text>
        <status value="generated"/>
        <div xmlns="http://www.w3.org/1999/xhtml">2011-01-07: ambulatory encounter</div>
      </text>
      <status value="finished"/>
      <class value="ambulatory"/>
      <patient>
        <reference value="Patient/ID7777704"/>
      </patient>
      <period>
       <start value="2011-01-07"/>
       <end value="2011-01-07"/>
      </period>
    </Encounter>
  
  </resource>
  <transaction>
    <method value="PUT"/>
    <url value="Encounter/ID1019"/>
  </transaction>
</entry>
  <entry>
  <resource>
    
    
    <Encounter>
  <id value="ID1020"/>
      <text>
        <status value="generated"/>
        <div xmlns="http://www.w3.org/1999/xhtml">2011-09-20: ambulatory encounter</div>
      </text>
      <status value="finished"/>
      <class value="ambulatory"/>
      <patient>
        <reference value="Patient/ID7777704"/>
      </patient>
      <period>
       <start value="2011-09-20"/>
       <end value="2011-09-20"/>
      </period>
    </Encounter>
  
  </resource>
  <transaction>
    <method value="PUT"/>
    <url value="Encounter/ID1020"/>
  </transaction>
</entry>
  <entry>
  <resource>
    
    
    <Encounter>
  <id value="ID1021"/>
      <text>
        <status value="generated"/>
        <div xmlns="http://www.w3.org/1999/xhtml">2011-12-02: ambulatory encounter</div>
      </text>
      <status value="finished"/>
      <class value="ambulatory"/>
      <patient>
        <reference value="Patient/ID7777704"/>
      </patient>
      <period>
       <start value="2011-12-02"/>
       <end value="2011-12-02"/>
      </period>
    </Encounter>
  
  </resource>
  <transaction>
    <method value="PUT"/>
    <url value="Encounter/ID1021"/>
  </transaction>
</entry>
  <entry>
  <resource>
    
    
    <Encounter>
  <id value="ID1022"/>
      <text>
        <status value="generated"/>
        <div xmlns="http://www.w3.org/1999/xhtml">2012-02-13: ambulatory encounter</div>
      </text>
      <status value="finished"/>
      <class value="ambulatory"/>
      <patient>
        <reference value="Patient/ID7777704"/>
      </patient>
      <period>
       <start value="2012-02-13"/>
       <end value="2012-02-13"/>
      </period>
    </Encounter>
  
  </resource>
  <transaction>
    <method value="PUT"/>
    <url value="Encounter/ID1022"/>
  </transaction>
</entry>
  <entry>
  <resource>
    
    
    <Encounter>
  <id value="ID1023"/>
      <text>
        <status value="generated"/>
        <div xmlns="http://www.w3.org/1999/xhtml">2012-07-08: ambulatory encounter</div>
      </text>
      <status value="finished"/>
      <class value="ambulatory"/>
      <patient>
        <reference value="Patient/ID7777704"/>
      </patient>
      <period>
       <start value="2012-07-08"/>
       <end value="2012-07-08"/>
      </period>
    </Encounter>
  
  </resource>
  <transaction>
    <method value="PUT"/>
    <url value="Encounter/ID1023"/>
  </transaction>
</entry>
  <entry>
  <resource>
    
    
    <Encounter>
  <id value="ID1024"/>
      <text>
        <status value="generated"/>
        <div xmlns="http://www.w3.org/1999/xhtml">2012-12-01: ambulatory encounter</div>
      </text>
      <status value="finished"/>
      <class value="ambulatory"/>
      <patient>
        <reference value="Patient/ID7777704"/>
      </patient>
      <period>
       <start value="2012-12-01"/>
       <end value="2012-12-01"/>
      </period>
    </Encounter>
  
  </resource>
  <transaction>
    <method value="PUT"/>
    <url value="Encounter/ID1024"/>
  </transaction>
</entry>
<entry>
  <resource>
    
    
  <Observation>
  <id value="ID1009-height"/>
    <text>
      <status value="generated"/>
      <div xmlns="http://www.w3.org/1999/xhtml">2005-09-21: height = 85.5 cm</div>
    </text>
    <code>
      <coding>
        <system value="http://loinc.org"/>
        <code value="8302-2"/>
        <display value="height"/>
      </coding>
    </code>
    <valueQuantity>
      <value value="85.5"/>
      <units value="cm"/>
      <system value="http://unitsofmeasure.org" />
      <code value="cm"/>
    </valueQuantity>
    
    <appliesDateTime value="2005-09-21"/>
    <status value="final"/>
    <reliability value="ok"/>
    <subject>
      <reference value="Patient/ID7777704"/>
    </subject>
    <encounter>
      <reference value="Encounter/ID1009"/>
    </encounter>
    
  </Observation>
  
  </resource>
  <transaction>
    <method value="PUT"/>
    <url value="Observation/ID1009-height"/>
  </transaction>
</entry>
<entry>
  <resource>
    
    
  <Observation>
  <id value="ID1009-weight"/>
    <text>
      <status value="generated"/>
      <div xmlns="http://www.w3.org/1999/xhtml">2005-09-21: weight = 12.4 kg</div>
    </text>
    <code>
      <coding>
        <system value="http://loinc.org"/>
        <code value="3141-9"/>
        <display value="weight"/>
      </coding>
    </code>
    <valueQuantity>
      <value value="12.4"/>
      <units value="kg"/>
      <system value="http://unitsofmeasure.org" />
      <code value="kg"/>
    </valueQuantity>
    
    <appliesDateTime value="2005-09-21"/>
    <status value="final"/>
    <reliability value="ok"/>
    <subject>
      <reference value="Patient/ID7777704"/>
    </subject>
    <encounter>
      <reference value="Encounter/ID1009"/>
    </encounter>
    
  </Observation>
  
  </resource>
  <transaction>
    <method value="PUT"/>
    <url value="Observation/ID1009-weight"/>
  </transaction>
</entry>
<entry>
  <resource>
    
    
  <Observation>
  <id value="ID1009-bmi"/>
    <text>
      <status value="generated"/>
      <div xmlns="http://www.w3.org/1999/xhtml">2005-09-21: bmi = 16.9 kg/m2</div>
    </text>
    <code>
      <coding>
        <system value="http://loinc.org"/>
        <code value="39156-5"/>
        <display value="bmi"/>
      </coding>
    </code>
    <valueQuantity>
      <value value="16.9"/>
      <units value="kg/m2"/>
      <system value="http://unitsofmeasure.org" />
      <code value="kg/m2"/>
    </valueQuantity>
    
    <appliesDateTime value="2005-09-21"/>
    <status value="final"/>
    <reliability value="ok"/>
    <subject>
      <reference value="Patient/ID7777704"/>
    </subject>
    <encounter>
      <reference value="Encounter/ID1009"/>
    </encounter>
    
  </Observation>
  
  </resource>
  <transaction>
    <method value="PUT"/>
    <url value="Observation/ID1009-bmi"/>
  </transaction>
</entry>
<entry>
  <resource>
    
    
  <Observation>
  <id value="ID1010-height"/>
    <text>
      <status value="generated"/>
      <div xmlns="http://www.w3.org/1999/xhtml">2005-10-27: height = 88.0 cm</div>
    </text>
    <code>
      <coding>
        <system value="http://loinc.org"/>
        <code value="8302-2"/>
        <display value="height"/>
      </coding>
    </code>
    <valueQuantity>
      <value value="88.0"/>
      <units value="cm"/>
      <system value="http://unitsofmeasure.org" />
      <code value="cm"/>
    </valueQuantity>
    
    <appliesDateTime value="2005-10-27"/>
    <status value="final"/>
    <reliability value="ok"/>
    <subject>
      <reference value="Patient/ID7777704"/>
    </subject>
    <encounter>
      <reference value="Encounter/ID1010"/>
    </encounter>
    
  </Observation>
  
  </resource>
  <transaction>
    <method value="PUT"/>
    <url value="Observation/ID1010-height"/>
  </transaction>
</entry>
<entry>
  <resource>
    
    
  <Observation>
  <id value="ID1010-weight"/>
    <text>
      <status value="generated"/>
      <div xmlns="http://www.w3.org/1999/xhtml">2005-10-27: weight = 12.6 kg</div>
    </text>
    <code>
      <coding>
        <system value="http://loinc.org"/>
        <code value="3141-9"/>
        <display value="weight"/>
      </coding>
    </code>
    <valueQuantity>
      <value value="12.6"/>
      <units value="kg"/>
      <system value="http://unitsofmeasure.org" />
      <code value="kg"/>
    </valueQuantity>
    
    <appliesDateTime value="2005-10-27"/>
    <status value="final"/>
    <reliability value="ok"/>
    <subject>
      <reference value="Patient/ID7777704"/>
    </subject>
    <encounter>
      <reference value="Encounter/ID1010"/>
    </encounter>
    
  </Observation>
  
  </resource>
  <transaction>
    <method value="PUT"/>
    <url value="Observation/ID1010-weight"/>
  </transaction>
</entry>
<entry>
  <resource>
    
    
  <Observation>
  <id value="ID1010-bmi"/>
    <text>
      <status value="generated"/>
      <div xmlns="http://www.w3.org/1999/xhtml">2005-10-27: bmi = 16.3 kg/m2</div>
    </text>
    <code>
      <coding>
        <system value="http://loinc.org"/>
        <code value="39156-5"/>
        <display value="bmi"/>
      </coding>
    </code>
    <valueQuantity>
      <value value="16.3"/>
      <units value="kg/m2"/>
      <system value="http://unitsofmeasure.org" />
      <code value="kg/m2"/>
    </valueQuantity>
    
    <appliesDateTime value="2005-10-27"/>
    <status value="final"/>
    <reliability value="ok"/>
    <subject>
      <reference value="Patient/ID7777704"/>
    </subject>
    <encounter>
      <reference value="Encounter/ID1010"/>
    </encounter>
    
  </Observation>
  
  </resource>
  <transaction>
    <method value="PUT"/>
    <url value="Observation/ID1010-bmi"/>
  </transaction>
</entry>
<entry>
  <resource>
    
    
  <Observation>
  <id value="ID1011-height"/>
    <text>
      <status value="generated"/>
      <div xmlns="http://www.w3.org/1999/xhtml">2006-02-14: height = 89.5 cm</div>
    </text>
    <code>
      <coding>
        <system value="http://loinc.org"/>
        <code value="8302-2"/>
        <display value="height"/>
      </coding>
    </code>
    <valueQuantity>
      <value value="89.5"/>
      <units value="cm"/>
      <system value="http://unitsofmeasure.org" />
      <code value="cm"/>
    </valueQuantity>
    
    <appliesDateTime value="2006-02-14"/>
    <status value="final"/>
    <reliability value="ok"/>
    <subject>
      <reference value="Patient/ID7777704"/>
    </subject>
    <encounter>
      <reference value="Encounter/ID1011"/>
    </encounter>
    
  </Observation>
  
  </resource>
  <transaction>
    <method value="PUT"/>
    <url value="Observation/ID1011-height"/>
  </transaction>
</entry>
<entry>
  <resource>
    
    
  <Observation>
  <id value="ID1011-weight"/>
    <text>
      <status value="generated"/>
      <div xmlns="http://www.w3.org/1999/xhtml">2006-02-14: weight = 12.7 kg</div>
    </text>
    <code>
      <coding>
        <system value="http://loinc.org"/>
        <code value="3141-9"/>
        <display value="weight"/>
      </coding>
    </code>
    <valueQuantity>
      <value value="12.7"/>
      <units value="kg"/>
      <system value="http://unitsofmeasure.org" />
      <code value="kg"/>
    </valueQuantity>
    
    <appliesDateTime value="2006-02-14"/>
    <status value="final"/>
    <reliability value="ok"/>
    <subject>
      <reference value="Patient/ID7777704"/>
    </subject>
    <encounter>
      <reference value="Encounter/ID1011"/>
    </encounter>
    
  </Observation>
  
  </resource>
  <transaction>
    <method value="PUT"/>
    <url value="Observation/ID1011-weight"/>
  </transaction>
</entry>
<entry>
  <resource>
    
    
  <Observation>
  <id value="ID1011-bmi"/>
    <text>
      <status value="generated"/>
      <div xmlns="http://www.w3.org/1999/xhtml">2006-02-14: bmi = 16.0 kg/m2</div>
    </text>
    <code>
      <coding>
        <system value="http://loinc.org"/>
        <code value="39156-5"/>
        <display value="bmi"/>
      </coding>
    </code>
    <valueQuantity>
      <value value="16.0"/>
      <units value="kg/m2"/>
      <system value="http://unitsofmeasure.org" />
      <code value="kg/m2"/>
    </valueQuantity>
    
    <appliesDateTime value="2006-02-14"/>
    <status value="final"/>
    <reliability value="ok"/>
    <subject>
      <reference value="Patient/ID7777704"/>
    </subject>
    <encounter>
      <reference value="Encounter/ID1011"/>
    </encounter>
    
  </Observation>
  
  </resource>
  <transaction>
    <method value="PUT"/>
    <url value="Observation/ID1011-bmi"/>
  </transaction>
</entry>
<entry>
  <resource>
    
    
  <Observation>
  <id value="ID1012-height"/>
    <text>
      <status value="generated"/>
      <div xmlns="http://www.w3.org/1999/xhtml">2006-09-21: height = 93.3 cm</div>
    </text>
    <code>
      <coding>
        <system value="http://loinc.org"/>
        <code value="8302-2"/>
        <display value="height"/>
      </coding>
    </code>
    <valueQuantity>
      <value value="93.3"/>
      <units value="cm"/>
      <system value="http://unitsofmeasure.org" />
      <code value="cm"/>
    </valueQuantity>
    
    <appliesDateTime value="2006-09-21"/>
    <status value="final"/>
    <reliability value="ok"/>
    <subject>
      <reference value="Patient/ID7777704"/>
    </subject>
    <encounter>
      <reference value="Encounter/ID1012"/>
    </encounter>
    
  </Observation>
  
  </resource>
  <transaction>
    <method value="PUT"/>
    <url value="Observation/ID1012-height"/>
  </transaction>
</entry>
<entry>
  <resource>
    
    
  <Observation>
  <id value="ID1012-weight"/>
    <text>
      <status value="generated"/>
      <div xmlns="http://www.w3.org/1999/xhtml">2006-09-21: weight = 14.5 kg</div>
    </text>
    <code>
      <coding>
        <system value="http://loinc.org"/>
        <code value="3141-9"/>
        <display value="weight"/>
      </coding>
    </code>
    <valueQuantity>
      <value value="14.5"/>
      <units value="kg"/>
      <system value="http://unitsofmeasure.org" />
      <code value="kg"/>
    </valueQuantity>
    
    <appliesDateTime value="2006-09-21"/>
    <status value="final"/>
    <reliability value="ok"/>
    <subject>
      <reference value="Patient/ID7777704"/>
    </subject>
    <encounter>
      <reference value="Encounter/ID1012"/>
    </encounter>
    
  </Observation>
  
  </resource>
  <transaction>
    <method value="PUT"/>
    <url value="Observation/ID1012-weight"/>
  </transaction>
</entry>
<entry>
  <resource>
    
    
  <Observation>
  <id value="ID1012-bmi"/>
    <text>
      <status value="generated"/>
      <div xmlns="http://www.w3.org/1999/xhtml">2006-09-21: bmi = 16.7 kg/m2</div>
    </text>
    <code>
      <coding>
        <system value="http://loinc.org"/>
        <code value="39156-5"/>
        <display value="bmi"/>
      </coding>
    </code>
    <valueQuantity>
      <value value="16.7"/>
      <units value="kg/m2"/>
      <system value="http://unitsofmeasure.org" />
      <code value="kg/m2"/>
    </valueQuantity>
    
    <appliesDateTime value="2006-09-21"/>
    <status value="final"/>
    <reliability value="ok"/>
    <subject>
      <reference value="Patient/ID7777704"/>
    </subject>
    <encounter>
      <reference value="Encounter/ID1012"/>
    </encounter>
    
  </Observation>
  
  </resource>
  <transaction>
    <method value="PUT"/>
    <url value="Observation/ID1012-bmi"/>
  </transaction>
</entry>
<entry>
  <resource>
    
    
  <Observation>
  <id value="ID1013-height"/>
    <text>
      <status value="generated"/>
      <div xmlns="http://www.w3.org/1999/xhtml">2006-10-27: height = 98.3 cm</div>
    </text>
    <code>
      <coding>
        <system value="http://loinc.org"/>
        <code value="8302-2"/>
        <display value="height"/>
      </coding>
    </code>
    <valueQuantity>
      <value value="98.3"/>
      <units value="cm"/>
      <system value="http://unitsofmeasure.org" />
      <code value="cm"/>
    </valueQuantity>
    
    <appliesDateTime value="2006-10-27"/>
    <status value="final"/>
    <reliability value="ok"/>
    <subject>
      <reference value="Patient/ID7777704"/>
    </subject>
    <encounter>
      <reference value="Encounter/ID1013"/>
    </encounter>
    
  </Observation>
  
  </resource>
  <transaction>
    <method value="PUT"/>
    <url value="Observation/ID1013-height"/>
  </transaction>
</entry>
<entry>
  <resource>
    
    
  <Observation>
  <id value="ID1013-weight"/>
    <text>
      <status value="generated"/>
      <div xmlns="http://www.w3.org/1999/xhtml">2006-10-27: weight = 14.5 kg</div>
    </text>
    <code>
      <coding>
        <system value="http://loinc.org"/>
        <code value="3141-9"/>
        <display value="weight"/>
      </coding>
    </code>
    <valueQuantity>
      <value value="14.5"/>
      <units value="kg"/>
      <system value="http://unitsofmeasure.org" />
      <code value="kg"/>
    </valueQuantity>
    
    <appliesDateTime value="2006-10-27"/>
    <status value="final"/>
    <reliability value="ok"/>
    <subject>
      <reference value="Patient/ID7777704"/>
    </subject>
    <encounter>
      <reference value="Encounter/ID1013"/>
    </encounter>
    
  </Observation>
  
  </resource>
  <transaction>
    <method value="PUT"/>
    <url value="Observation/ID1013-weight"/>
  </transaction>
</entry>
<entry>
  <resource>
    
    
  <Observation>
  <id value="ID1013-bmi"/>
    <text>
      <status value="generated"/>
      <div xmlns="http://www.w3.org/1999/xhtml">2006-10-27: bmi = 15.1 kg/m2</div>
    </text>
    <code>
      <coding>
        <system value="http://loinc.org"/>
        <code value="39156-5"/>
        <display value="bmi"/>
      </coding>
    </code>
    <valueQuantity>
      <value value="15.1"/>
      <units value="kg/m2"/>
      <system value="http://unitsofmeasure.org" />
      <code value="kg/m2"/>
    </valueQuantity>
    
    <appliesDateTime value="2006-10-27"/>
    <status value="final"/>
    <reliability value="ok"/>
    <subject>
      <reference value="Patient/ID7777704"/>
    </subject>
    <encounter>
      <reference value="Encounter/ID1013"/>
    </encounter>
    
  </Observation>
  
  </resource>
  <transaction>
    <method value="PUT"/>
    <url value="Observation/ID1013-bmi"/>
  </transaction>
</entry>
<entry>
  <resource>
    
    
  <Observation>
  <id value="ID1014-height"/>
    <text>
      <status value="generated"/>
      <div xmlns="http://www.w3.org/1999/xhtml">2007-06-03: height = 100.7 cm</div>
    </text>
    <code>
      <coding>
        <system value="http://loinc.org"/>
        <code value="8302-2"/>
        <display value="height"/>
      </coding>
    </code>
    <valueQuantity>
      <value value="100.7"/>
      <units value="cm"/>
      <system value="http://unitsofmeasure.org" />
      <code value="cm"/>
    </valueQuantity>
    
    <appliesDateTime value="2007-06-03"/>
    <status value="final"/>
    <reliability value="ok"/>
    <subject>
      <reference value="Patient/ID7777704"/>
    </subject>
    <encounter>
      <reference value="Encounter/ID1014"/>
    </encounter>
    
  </Observation>
  
  </resource>
  <transaction>
    <method value="PUT"/>
    <url value="Observation/ID1014-height"/>
  </transaction>
</entry>
<entry>
  <resource>
    
    
  <Observation>
  <id value="ID1014-weight"/>
    <text>
      <status value="generated"/>
      <div xmlns="http://www.w3.org/1999/xhtml">2007-06-03: weight = 17.5 kg</div>
    </text>
    <code>
      <coding>
        <system value="http://loinc.org"/>
        <code value="3141-9"/>
        <display value="weight"/>
      </coding>
    </code>
    <valueQuantity>
      <value value="17.5"/>
      <units value="kg"/>
      <system value="http://unitsofmeasure.org" />
      <code value="kg"/>
    </valueQuantity>
    
    <appliesDateTime value="2007-06-03"/>
    <status value="final"/>
    <reliability value="ok"/>
    <subject>
      <reference value="Patient/ID7777704"/>
    </subject>
    <encounter>
      <reference value="Encounter/ID1014"/>
    </encounter>
    
  </Observation>
  
  </resource>
  <transaction>
    <method value="PUT"/>
    <url value="Observation/ID1014-weight"/>
  </transaction>
</entry>
<entry>
  <resource>
    
    
  <Observation>
  <id value="ID1014-bmi"/>
    <text>
      <status value="generated"/>
      <div xmlns="http://www.w3.org/1999/xhtml">2007-06-03: bmi = 17.3 kg/m2</div>
    </text>
    <code>
      <coding>
        <system value="http://loinc.org"/>
        <code value="39156-5"/>
        <display value="bmi"/>
      </coding>
    </code>
    <valueQuantity>
      <value value="17.3"/>
      <units value="kg/m2"/>
      <system value="http://unitsofmeasure.org" />
      <code value="kg/m2"/>
    </valueQuantity>
    
    <appliesDateTime value="2007-06-03"/>
    <status value="final"/>
    <reliability value="ok"/>
    <subject>
      <reference value="Patient/ID7777704"/>
    </subject>
    <encounter>
      <reference value="Encounter/ID1014"/>
    </encounter>
    
  </Observation>
  
  </resource>
  <transaction>
    <method value="PUT"/>
    <url value="Observation/ID1014-bmi"/>
  </transaction>
</entry>
<entry>
  <resource>
    
    
  <Observation>
  <id value="ID1015-height"/>
    <text>
      <status value="generated"/>
      <div xmlns="http://www.w3.org/1999/xhtml">2007-08-15: height = 103.0 cm</div>
    </text>
    <code>
      <coding>
        <system value="http://loinc.org"/>
        <code value="8302-2"/>
        <display value="height"/>
      </coding>
    </code>
    <valueQuantity>
      <value value="103.0"/>
      <units value="cm"/>
      <system value="http://unitsofmeasure.org" />
      <code value="cm"/>
    </valueQuantity>
    
    <appliesDateTime value="2007-08-15"/>
    <status value="final"/>
    <reliability value="ok"/>
    <subject>
      <reference value="Patient/ID7777704"/>
    </subject>
    <encounter>
      <reference value="Encounter/ID1015"/>
    </encounter>
    
  </Observation>
  
  </resource>
  <transaction>
    <method value="PUT"/>
    <url value="Observation/ID1015-height"/>
  </transaction>
</entry>
<entry>
  <resource>
    
    
  <Observation>
  <id value="ID1015-weight"/>
    <text>
      <status value="generated"/>
      <div xmlns="http://www.w3.org/1999/xhtml">2007-08-15: weight = 19.1 kg</div>
    </text>
    <code>
      <coding>
        <system value="http://loinc.org"/>
        <code value="3141-9"/>
        <display value="weight"/>
      </coding>
    </code>
    <valueQuantity>
      <value value="19.1"/>
      <units value="kg"/>
      <system value="http://unitsofmeasure.org" />
      <code value="kg"/>
    </valueQuantity>
    
    <appliesDateTime value="2007-08-15"/>
    <status value="final"/>
    <reliability value="ok"/>
    <subject>
      <reference value="Patient/ID7777704"/>
    </subject>
    <encounter>
      <reference value="Encounter/ID1015"/>
    </encounter>
    
  </Observation>
  
  </resource>
  <transaction>
    <method value="PUT"/>
    <url value="Observation/ID1015-weight"/>
  </transaction>
</entry>
<entry>
  <resource>
    
    
  <Observation>
  <id value="ID1015-bmi"/>
    <text>
      <status value="generated"/>
      <div xmlns="http://www.w3.org/1999/xhtml">2007-08-15: bmi = 18.1 kg/m2</div>
    </text>
    <code>
      <coding>
        <system value="http://loinc.org"/>
        <code value="39156-5"/>
        <display value="bmi"/>
      </coding>
    </code>
    <valueQuantity>
      <value value="18.1"/>
      <units value="kg/m2"/>
      <system value="http://unitsofmeasure.org" />
      <code value="kg/m2"/>
    </valueQuantity>
    
    <appliesDateTime value="2007-08-15"/>
    <status value="final"/>
    <reliability value="ok"/>
    <subject>
      <reference value="Patient/ID7777704"/>
    </subject>
    <encounter>
      <reference value="Encounter/ID1015"/>
    </encounter>
    
  </Observation>
  
  </resource>
  <transaction>
    <method value="PUT"/>
    <url value="Observation/ID1015-bmi"/>
  </transaction>
</entry>
<entry>
  <resource>
    
    
  <Observation>
  <id value="ID1016-height"/>
    <text>
      <status value="generated"/>
      <div xmlns="http://www.w3.org/1999/xhtml">2007-10-27: height = 105.7 cm</div>
    </text>
    <code>
      <coding>
        <system value="http://loinc.org"/>
        <code value="8302-2"/>
        <display value="height"/>
      </coding>
    </code>
    <valueQuantity>
      <value value="105.7"/>
      <units value="cm"/>
      <system value="http://unitsofmeasure.org" />
      <code value="cm"/>
    </valueQuantity>
    
    <appliesDateTime value="2007-10-27"/>
    <status value="final"/>
    <reliability value="ok"/>
    <subject>
      <reference value="Patient/ID7777704"/>
    </subject>
    <encounter>
      <reference value="Encounter/ID1016"/>
    </encounter>
    
  </Observation>
  
  </resource>
  <transaction>
    <method value="PUT"/>
    <url value="Observation/ID1016-height"/>
  </transaction>
</entry>
<entry>
  <resource>
    
    
  <Observation>
  <id value="ID1016-weight"/>
    <text>
      <status value="generated"/>
      <div xmlns="http://www.w3.org/1999/xhtml">2007-10-27: weight = 21.0 kg</div>
    </text>
    <code>
      <coding>
        <system value="http://loinc.org"/>
        <code value="3141-9"/>
        <display value="weight"/>
      </coding>
    </code>
    <valueQuantity>
      <value value="21.0"/>
      <units value="kg"/>
      <system value="http://unitsofmeasure.org" />
      <code value="kg"/>
    </valueQuantity>
    
    <appliesDateTime value="2007-10-27"/>
    <status value="final"/>
    <reliability value="ok"/>
    <subject>
      <reference value="Patient/ID7777704"/>
    </subject>
    <encounter>
      <reference value="Encounter/ID1016"/>
    </encounter>
    
  </Observation>
  
  </resource>
  <transaction>
    <method value="PUT"/>
    <url value="Observation/ID1016-weight"/>
  </transaction>
</entry>
<entry>
  <resource>
    
    
  <Observation>
  <id value="ID1016-bmi"/>
    <text>
      <status value="generated"/>
      <div xmlns="http://www.w3.org/1999/xhtml">2007-10-27: bmi = 18.8 kg/m2</div>
    </text>
    <code>
      <coding>
        <system value="http://loinc.org"/>
        <code value="39156-5"/>
        <display value="bmi"/>
      </coding>
    </code>
    <valueQuantity>
      <value value="18.8"/>
      <units value="kg/m2"/>
      <system value="http://unitsofmeasure.org" />
      <code value="kg/m2"/>
    </valueQuantity>
    
    <appliesDateTime value="2007-10-27"/>
    <status value="final"/>
    <reliability value="ok"/>
    <subject>
      <reference value="Patient/ID7777704"/>
    </subject>
    <encounter>
      <reference value="Encounter/ID1016"/>
    </encounter>
    
  </Observation>
  
  </resource>
  <transaction>
    <method value="PUT"/>
    <url value="Observation/ID1016-bmi"/>
  </transaction>
</entry>
<entry>
  <resource>
    
    
  <Observation>
  <id value="ID1017-height"/>
    <text>
      <status value="generated"/>
      <div xmlns="http://www.w3.org/1999/xhtml">2008-02-14: height = 108.1 cm</div>
    </text>
    <code>
      <coding>
        <system value="http://loinc.org"/>
        <code value="8302-2"/>
        <display value="height"/>
      </coding>
    </code>
    <valueQuantity>
      <value value="108.1"/>
      <units value="cm"/>
      <system value="http://unitsofmeasure.org" />
      <code value="cm"/>
    </valueQuantity>
    
    <appliesDateTime value="2008-02-14"/>
    <status value="final"/>
    <reliability value="ok"/>
    <subject>
      <reference value="Patient/ID7777704"/>
    </subject>
    <encounter>
      <reference value="Encounter/ID1017"/>
    </encounter>
    
  </Observation>
  
  </resource>
  <transaction>
    <method value="PUT"/>
    <url value="Observation/ID1017-height"/>
  </transaction>
</entry>
<entry>
  <resource>
    
    
  <Observation>
  <id value="ID1017-weight"/>
    <text>
      <status value="generated"/>
      <div xmlns="http://www.w3.org/1999/xhtml">2008-02-14: weight = 21.3 kg</div>
    </text>
    <code>
      <coding>
        <system value="http://loinc.org"/>
        <code value="3141-9"/>
        <display value="weight"/>
      </coding>
    </code>
    <valueQuantity>
      <value value="21.3"/>
      <units value="kg"/>
      <system value="http://unitsofmeasure.org" />
      <code value="kg"/>
    </valueQuantity>
    
    <appliesDateTime value="2008-02-14"/>
    <status value="final"/>
    <reliability value="ok"/>
    <subject>
      <reference value="Patient/ID7777704"/>
    </subject>
    <encounter>
      <reference value="Encounter/ID1017"/>
    </encounter>
    
  </Observation>
  
  </resource>
  <transaction>
    <method value="PUT"/>
    <url value="Observation/ID1017-weight"/>
  </transaction>
</entry>
<entry>
  <resource>
    
    
  <Observation>
  <id value="ID1017-bmi"/>
    <text>
      <status value="generated"/>
      <div xmlns="http://www.w3.org/1999/xhtml">2008-02-14: bmi = 18.2 kg/m2</div>
    </text>
    <code>
      <coding>
        <system value="http://loinc.org"/>
        <code value="39156-5"/>
        <display value="bmi"/>
      </coding>
    </code>
    <valueQuantity>
      <value value="18.2"/>
      <units value="kg/m2"/>
      <system value="http://unitsofmeasure.org" />
      <code value="kg/m2"/>
    </valueQuantity>
    
    <appliesDateTime value="2008-02-14"/>
    <status value="final"/>
    <reliability value="ok"/>
    <subject>
      <reference value="Patient/ID7777704"/>
    </subject>
    <encounter>
      <reference value="Encounter/ID1017"/>
    </encounter>
    
  </Observation>
  
  </resource>
  <transaction>
    <method value="PUT"/>
    <url value="Observation/ID1017-bmi"/>
  </transaction>
</entry>
<entry>
  <resource>
    
    
  <Observation>
  <id value="ID1018-height"/>
    <text>
      <status value="generated"/>
      <div xmlns="http://www.w3.org/1999/xhtml">2010-03-21: height = 121.6 cm</div>
    </text>
    <code>
      <coding>
        <system value="http://loinc.org"/>
        <code value="8302-2"/>
        <display value="height"/>
      </coding>
    </code>
    <valueQuantity>
      <value value="121.6"/>
      <units value="cm"/>
      <system value="http://unitsofmeasure.org" />
      <code value="cm"/>
    </valueQuantity>
    
    <appliesDateTime value="2010-03-21"/>
    <status value="final"/>
    <reliability value="ok"/>
    <subject>
      <reference value="Patient/ID7777704"/>
    </subject>
    <encounter>
      <reference value="Encounter/ID1018"/>
    </encounter>
    
  </Observation>
  
  </resource>
  <transaction>
    <method value="PUT"/>
    <url value="Observation/ID1018-height"/>
  </transaction>
</entry>
<entry>
  <resource>
    
    
  <Observation>
  <id value="ID1018-weight"/>
    <text>
      <status value="generated"/>
      <div xmlns="http://www.w3.org/1999/xhtml">2010-03-21: weight = 27.5 kg</div>
    </text>
    <code>
      <coding>
        <system value="http://loinc.org"/>
        <code value="3141-9"/>
        <display value="weight"/>
      </coding>
    </code>
    <valueQuantity>
      <value value="27.5"/>
      <units value="kg"/>
      <system value="http://unitsofmeasure.org" />
      <code value="kg"/>
    </valueQuantity>
    
    <appliesDateTime value="2010-03-21"/>
    <status value="final"/>
    <reliability value="ok"/>
    <subject>
      <reference value="Patient/ID7777704"/>
    </subject>
    <encounter>
      <reference value="Encounter/ID1018"/>
    </encounter>
    
  </Observation>
  
  </resource>
  <transaction>
    <method value="PUT"/>
    <url value="Observation/ID1018-weight"/>
  </transaction>
</entry>
<entry>
  <resource>
    
    
  <Observation>
  <id value="ID1018-bmi"/>
    <text>
      <status value="generated"/>
      <div xmlns="http://www.w3.org/1999/xhtml">2010-03-21: bmi = 18.7 kg/m2</div>
    </text>
    <code>
      <coding>
        <system value="http://loinc.org"/>
        <code value="39156-5"/>
        <display value="bmi"/>
      </coding>
    </code>
    <valueQuantity>
      <value value="18.7"/>
      <units value="kg/m2"/>
      <system value="http://unitsofmeasure.org" />
      <code value="kg/m2"/>
    </valueQuantity>
    
    <appliesDateTime value="2010-03-21"/>
    <status value="final"/>
    <reliability value="ok"/>
    <subject>
      <reference value="Patient/ID7777704"/>
    </subject>
    <encounter>
      <reference value="Encounter/ID1018"/>
    </encounter>
    
  </Observation>
  
  </resource>
  <transaction>
    <method value="PUT"/>
    <url value="Observation/ID1018-bmi"/>
  </transaction>
</entry>
<entry>
  <resource>
    
    
  <Observation>
  <id value="ID1019-height"/>
    <text>
      <status value="generated"/>
      <div xmlns="http://www.w3.org/1999/xhtml">2011-01-07: height = 124.7 cm</div>
    </text>
    <code>
      <coding>
        <system value="http://loinc.org"/>
        <code value="8302-2"/>
        <display value="height"/>
      </coding>
    </code>
    <valueQuantity>
      <value value="124.7"/>
      <units value="cm"/>
      <system value="http://unitsofmeasure.org" />
      <code value="cm"/>
    </valueQuantity>
    
    <appliesDateTime value="2011-01-07"/>
    <status value="final"/>
    <reliability value="ok"/>
    <subject>
      <reference value="Patient/ID7777704"/>
    </subject>
    <encounter>
      <reference value="Encounter/ID1019"/>
    </encounter>
    
  </Observation>
  
  </resource>
  <transaction>
    <method value="PUT"/>
    <url value="Observation/ID1019-height"/>
  </transaction>
</entry>
<entry>
  <resource>
    
    
  <Observation>
  <id value="ID1019-weight"/>
    <text>
      <status value="generated"/>
      <div xmlns="http://www.w3.org/1999/xhtml">2011-01-07: weight = 30.5 kg</div>
    </text>
    <code>
      <coding>
        <system value="http://loinc.org"/>
        <code value="3141-9"/>
        <display value="weight"/>
      </coding>
    </code>
    <valueQuantity>
      <value value="30.5"/>
      <units value="kg"/>
      <system value="http://unitsofmeasure.org" />
      <code value="kg"/>
    </valueQuantity>
    
    <appliesDateTime value="2011-01-07"/>
    <status value="final"/>
    <reliability value="ok"/>
    <subject>
      <reference value="Patient/ID7777704"/>
    </subject>
    <encounter>
      <reference value="Encounter/ID1019"/>
    </encounter>
    
  </Observation>
  
  </resource>
  <transaction>
    <method value="PUT"/>
    <url value="Observation/ID1019-weight"/>
  </transaction>
</entry>
<entry>
  <resource>
    
    
  <Observation>
  <id value="ID1019-bmi"/>
    <text>
      <status value="generated"/>
      <div xmlns="http://www.w3.org/1999/xhtml">2011-01-07: bmi = 19.7 kg/m2</div>
    </text>
    <code>
      <coding>
        <system value="http://loinc.org"/>
        <code value="39156-5"/>
        <display value="bmi"/>
      </coding>
    </code>
    <valueQuantity>
      <value value="19.7"/>
      <units value="kg/m2"/>
      <system value="http://unitsofmeasure.org" />
      <code value="kg/m2"/>
    </valueQuantity>
    
    <appliesDateTime value="2011-01-07"/>
    <status value="final"/>
    <reliability value="ok"/>
    <subject>
      <reference value="Patient/ID7777704"/>
    </subject>
    <encounter>
      <reference value="Encounter/ID1019"/>
    </encounter>
    
  </Observation>
  
  </resource>
  <transaction>
    <method value="PUT"/>
    <url value="Observation/ID1019-bmi"/>
  </transaction>
</entry>
<entry>
  <resource>
    
    
  <Observation>
  <id value="ID1020-height"/>
    <text>
      <status value="generated"/>
      <div xmlns="http://www.w3.org/1999/xhtml">2011-09-20: height = 134.5 cm</div>
    </text>
    <code>
      <coding>
        <system value="http://loinc.org"/>
        <code value="8302-2"/>
        <display value="height"/>
      </coding>
    </code>
    <valueQuantity>
      <value value="134.5"/>
      <units value="cm"/>
      <system value="http://unitsofmeasure.org" />
      <code value="cm"/>
    </valueQuantity>
    
    <appliesDateTime value="2011-09-20"/>
    <status value="final"/>
    <reliability value="ok"/>
    <subject>
      <reference value="Patient/ID7777704"/>
    </subject>
    <encounter>
      <reference value="Encounter/ID1020"/>
    </encounter>
    
  </Observation>
  
  </resource>
  <transaction>
    <method value="PUT"/>
    <url value="Observation/ID1020-height"/>
  </transaction>
</entry>
<entry>
  <resource>
    
    
  <Observation>
  <id value="ID1020-weight"/>
    <text>
      <status value="generated"/>
      <div xmlns="http://www.w3.org/1999/xhtml">2011-09-20: weight = 34.4 kg</div>
    </text>
    <code>
      <coding>
        <system value="http://loinc.org"/>
        <code value="3141-9"/>
        <display value="weight"/>
      </coding>
    </code>
    <valueQuantity>
      <value value="34.4"/>
      <units value="kg"/>
      <system value="http://unitsofmeasure.org" />
      <code value="kg"/>
    </valueQuantity>
    
    <appliesDateTime value="2011-09-20"/>
    <status value="final"/>
    <reliability value="ok"/>
    <subject>
      <reference value="Patient/ID7777704"/>
    </subject>
    <encounter>
      <reference value="Encounter/ID1020"/>
    </encounter>
    
  </Observation>
  
  </resource>
  <transaction>
    <method value="PUT"/>
    <url value="Observation/ID1020-weight"/>
  </transaction>
</entry>
<entry>
  <resource>
    
    
  <Observation>
  <id value="ID1020-bmi"/>
    <text>
      <status value="generated"/>
      <div xmlns="http://www.w3.org/1999/xhtml">2011-09-20: bmi = 19.1 kg/m2</div>
    </text>
    <code>
      <coding>
        <system value="http://loinc.org"/>
        <code value="39156-5"/>
        <display value="bmi"/>
      </coding>
    </code>
    <valueQuantity>
      <value value="19.1"/>
      <units value="kg/m2"/>
      <system value="http://unitsofmeasure.org" />
      <code value="kg/m2"/>
    </valueQuantity>
    
    <appliesDateTime value="2011-09-20"/>
    <status value="final"/>
    <reliability value="ok"/>
    <subject>
      <reference value="Patient/ID7777704"/>
    </subject>
    <encounter>
      <reference value="Encounter/ID1020"/>
    </encounter>
    
  </Observation>
  
  </resource>
  <transaction>
    <method value="PUT"/>
    <url value="Observation/ID1020-bmi"/>
  </transaction>
</entry>
<entry>
  <resource>
    
    
  <Observation>
  <id value="ID1021-height"/>
    <text>
      <status value="generated"/>
      <div xmlns="http://www.w3.org/1999/xhtml">2011-12-02: height = 133.4 cm</div>
    </text>
    <code>
      <coding>
        <system value="http://loinc.org"/>
        <code value="8302-2"/>
        <display value="height"/>
      </coding>
    </code>
    <valueQuantity>
      <value value="133.4"/>
      <units value="cm"/>
      <system value="http://unitsofmeasure.org" />
      <code value="cm"/>
    </valueQuantity>
    
    <appliesDateTime value="2011-12-02"/>
    <status value="final"/>
    <reliability value="ok"/>
    <subject>
      <reference value="Patient/ID7777704"/>
    </subject>
    <encounter>
      <reference value="Encounter/ID1021"/>
    </encounter>
    
  </Observation>
  
  </resource>
  <transaction>
    <method value="PUT"/>
    <url value="Observation/ID1021-height"/>
  </transaction>
</entry>
<entry>
  <resource>
    
    
  <Observation>
  <id value="ID1021-weight"/>
    <text>
      <status value="generated"/>
      <div xmlns="http://www.w3.org/1999/xhtml">2011-12-02: weight = 37.6 kg</div>
    </text>
    <code>
      <coding>
        <system value="http://loinc.org"/>
        <code value="3141-9"/>
        <display value="weight"/>
      </coding>
    </code>
    <valueQuantity>
      <value value="37.6"/>
      <units value="kg"/>
      <system value="http://unitsofmeasure.org" />
      <code value="kg"/>
    </valueQuantity>
    
    <appliesDateTime value="2011-12-02"/>
    <status value="final"/>
    <reliability value="ok"/>
    <subject>
      <reference value="Patient/ID7777704"/>
    </subject>
    <encounter>
      <reference value="Encounter/ID1021"/>
    </encounter>
    
  </Observation>
  
  </resource>
  <transaction>
    <method value="PUT"/>
    <url value="Observation/ID1021-weight"/>
  </transaction>
</entry>
<entry>
  <resource>
    
    
  <Observation>
  <id value="ID1021-bmi"/>
    <text>
      <status value="generated"/>
      <div xmlns="http://www.w3.org/1999/xhtml">2011-12-02: bmi = 21.5 kg/m2</div>
    </text>
    <code>
      <coding>
        <system value="http://loinc.org"/>
        <code value="39156-5"/>
        <display value="bmi"/>
      </coding>
    </code>
    <valueQuantity>
      <value value="21.5"/>
      <units value="kg/m2"/>
      <system value="http://unitsofmeasure.org" />
      <code value="kg/m2"/>
    </valueQuantity>
    
    <appliesDateTime value="2011-12-02"/>
    <status value="final"/>
    <reliability value="ok"/>
    <subject>
      <reference value="Patient/ID7777704"/>
    </subject>
    <encounter>
      <reference value="Encounter/ID1021"/>
    </encounter>
    
  </Observation>
  
  </resource>
  <transaction>
    <method value="PUT"/>
    <url value="Observation/ID1021-bmi"/>
  </transaction>
</entry>
<entry>
  <resource>
    
    
  <Observation>
  <id value="ID1022-height"/>
    <text>
      <status value="generated"/>
      <div xmlns="http://www.w3.org/1999/xhtml">2012-02-13: height = 133.5 cm</div>
    </text>
    <code>
      <coding>
        <system value="http://loinc.org"/>
        <code value="8302-2"/>
        <display value="height"/>
      </coding>
    </code>
    <valueQuantity>
      <value value="133.5"/>
      <units value="cm"/>
      <system value="http://unitsofmeasure.org" />
      <code value="cm"/>
    </valueQuantity>
    
    <appliesDateTime value="2012-02-13"/>
    <status value="final"/>
    <reliability value="ok"/>
    <subject>
      <reference value="Patient/ID7777704"/>
    </subject>
    <encounter>
      <reference value="Encounter/ID1022"/>
    </encounter>
    
  </Observation>
  
  </resource>
  <transaction>
    <method value="PUT"/>
    <url value="Observation/ID1022-height"/>
  </transaction>
</entry>
<entry>
  <resource>
    
    
  <Observation>
  <id value="ID1022-weight"/>
    <text>
      <status value="generated"/>
      <div xmlns="http://www.w3.org/1999/xhtml">2012-02-13: weight = 39.8 kg</div>
    </text>
    <code>
      <coding>
        <system value="http://loinc.org"/>
        <code value="3141-9"/>
        <display value="weight"/>
      </coding>
    </code>
    <valueQuantity>
      <value value="39.8"/>
      <units value="kg"/>
      <system value="http://unitsofmeasure.org" />
      <code value="kg"/>
    </valueQuantity>
    
    <appliesDateTime value="2012-02-13"/>
    <status value="final"/>
    <reliability value="ok"/>
    <subject>
      <reference value="Patient/ID7777704"/>
    </subject>
    <encounter>
      <reference value="Encounter/ID1022"/>
    </encounter>
    
  </Observation>
  
  </resource>
  <transaction>
    <method value="PUT"/>
    <url value="Observation/ID1022-weight"/>
  </transaction>
</entry>
<entry>
  <resource>
    
    
  <Observation>
  <id value="ID1022-bmi"/>
    <text>
      <status value="generated"/>
      <div xmlns="http://www.w3.org/1999/xhtml">2012-02-13: bmi = 23.3 kg/m2</div>
    </text>
    <code>
      <coding>
        <system value="http://loinc.org"/>
        <code value="39156-5"/>
        <display value="bmi"/>
      </coding>
    </code>
    <valueQuantity>
      <value value="23.3"/>
      <units value="kg/m2"/>
      <system value="http://unitsofmeasure.org" />
      <code value="kg/m2"/>
    </valueQuantity>
    
    <appliesDateTime value="2012-02-13"/>
    <status value="final"/>
    <reliability value="ok"/>
    <subject>
      <reference value="Patient/ID7777704"/>
    </subject>
    <encounter>
      <reference value="Encounter/ID1022"/>
    </encounter>
    
  </Observation>
  
  </resource>
  <transaction>
    <method value="PUT"/>
    <url value="Observation/ID1022-bmi"/>
  </transaction>
</entry>
<entry>
  <resource>
    
    
  <Observation>
  <id value="ID1023-height"/>
    <text>
      <status value="generated"/>
      <div xmlns="http://www.w3.org/1999/xhtml">2012-07-08: height = 135.3 cm</div>
    </text>
    <code>
      <coding>
        <system value="http://loinc.org"/>
        <code value="8302-2"/>
        <display value="height"/>
      </coding>
    </code>
    <valueQuantity>
      <value value="135.3"/>
      <units value="cm"/>
      <system value="http://unitsofmeasure.org" />
      <code value="cm"/>
    </valueQuantity>
    
    <appliesDateTime value="2012-07-08"/>
    <status value="final"/>
    <reliability value="ok"/>
    <subject>
      <reference value="Patient/ID7777704"/>
    </subject>
    <encounter>
      <reference value="Encounter/ID1023"/>
    </encounter>
    
  </Observation>
  
  </resource>
  <transaction>
    <method value="PUT"/>
    <url value="Observation/ID1023-height"/>
  </transaction>
</entry>
<entry>
  <resource>
    
    
  <Observation>
  <id value="ID1023-weight"/>
    <text>
      <status value="generated"/>
      <div xmlns="http://www.w3.org/1999/xhtml">2012-07-08: weight = 42.2 kg</div>
    </text>
    <code>
      <coding>
        <system value="http://loinc.org"/>
        <code value="3141-9"/>
        <display value="weight"/>
      </coding>
    </code>
    <valueQuantity>
      <value value="42.2"/>
      <units value="kg"/>
      <system value="http://unitsofmeasure.org" />
      <code value="kg"/>
    </valueQuantity>
    
    <appliesDateTime value="2012-07-08"/>
    <status value="final"/>
    <reliability value="ok"/>
    <subject>
      <reference value="Patient/ID7777704"/>
    </subject>
    <encounter>
      <reference value="Encounter/ID1023"/>
    </encounter>
    
  </Observation>
  
  </resource>
  <transaction>
    <method value="PUT"/>
    <url value="Observation/ID1023-weight"/>
  </transaction>
</entry>
<entry>
  <resource>
    
    
  <Observation>
  <id value="ID1023-bmi"/>
    <text>
      <status value="generated"/>
      <div xmlns="http://www.w3.org/1999/xhtml">2012-07-08: bmi = 23.1 kg/m2</div>
    </text>
    <code>
      <coding>
        <system value="http://loinc.org"/>
        <code value="39156-5"/>
        <display value="bmi"/>
      </coding>
    </code>
    <valueQuantity>
      <value value="23.1"/>
      <units value="kg/m2"/>
      <system value="http://unitsofmeasure.org" />
      <code value="kg/m2"/>
    </valueQuantity>
    
    <appliesDateTime value="2012-07-08"/>
    <status value="final"/>
    <reliability value="ok"/>
    <subject>
      <reference value="Patient/ID7777704"/>
    </subject>
    <encounter>
      <reference value="Encounter/ID1023"/>
    </encounter>
    
  </Observation>
  
  </resource>
  <transaction>
    <method value="PUT"/>
    <url value="Observation/ID1023-bmi"/>
  </transaction>
</entry>
<entry>
  <resource>
    
    
  <Observation>
  <id value="ID1024-height"/>
    <text>
      <status value="generated"/>
      <div xmlns="http://www.w3.org/1999/xhtml">2012-12-01: height = 138.1 cm</div>
    </text>
    <code>
      <coding>
        <system value="http://loinc.org"/>
        <code value="8302-2"/>
        <display value="height"/>
      </coding>
    </code>
    <valueQuantity>
      <value value="138.1"/>
      <units value="cm"/>
      <system value="http://unitsofmeasure.org" />
      <code value="cm"/>
    </valueQuantity>
    
    <appliesDateTime value="2012-12-01"/>
    <status value="final"/>
    <reliability value="ok"/>
    <subject>
      <reference value="Patient/ID7777704"/>
    </subject>
    <encounter>
      <reference value="Encounter/ID1024"/>
    </encounter>
    
  </Observation>
  
  </resource>
  <transaction>
    <method value="PUT"/>
    <url value="Observation/ID1024-height"/>
  </transaction>
</entry>
<entry>
  <resource>
    
    
  <Observation>
  <id value="ID1024-weight"/>
    <text>
      <status value="generated"/>
      <div xmlns="http://www.w3.org/1999/xhtml">2012-12-01: weight = 44.9 kg</div>
    </text>
    <code>
      <coding>
        <system value="http://loinc.org"/>
        <code value="3141-9"/>
        <display value="weight"/>
      </coding>
    </code>
    <valueQuantity>
      <value value="44.9"/>
      <units value="kg"/>
      <system value="http://unitsofmeasure.org" />
      <code value="kg"/>
    </valueQuantity>
    
    <appliesDateTime value="2012-12-01"/>
    <status value="final"/>
    <reliability value="ok"/>
    <subject>
      <reference value="Patient/ID7777704"/>
    </subject>
    <encounter>
      <reference value="Encounter/ID1024"/>
    </encounter>
    
  </Observation>
  
  </resource>
  <transaction>
    <method value="PUT"/>
    <url value="Observation/ID1024-weight"/>
  </transaction>
</entry>
<entry>
  <resource>
    
    
  <Observation>
  <id value="ID1024-bmi"/>
    <text>
      <status value="generated"/>
      <div xmlns="http://www.w3.org/1999/xhtml">2012-12-01: bmi = 23.5 kg/m2</div>
    </text>
    <code>
      <coding>
        <system value="http://loinc.org"/>
        <code value="39156-5"/>
        <display value="bmi"/>
      </coding>
    </code>
    <valueQuantity>
      <value value="23.5"/>
      <units value="kg/m2"/>
      <system value="http://unitsofmeasure.org" />
      <code value="kg/m2"/>
    </valueQuantity>
    
    <appliesDateTime value="2012-12-01"/>
    <status value="final"/>
    <reliability value="ok"/>
    <subject>
      <reference value="Patient/ID7777704"/>
    </subject>
    <encounter>
      <reference value="Encounter/ID1024"/>
    </encounter>
    
  </Observation>
  
  </resource>
  <transaction>
    <method value="PUT"/>
    <url value="Observation/ID1024-bmi"/>
  </transaction>
</entry>
<entry>
  <resource>
    
    
  <Observation>
  <id value="ID3505-lab"/>
    <text>
      <status value="generated"/>
      <div xmlns="http://www.w3.org/1999/xhtml">2012-07-08: Bones XR Bone Age = 123 mo</div>
    </text>
    <code>
      <coding>
        <system value="http://loinc.org"/>
        <code value="37362-1"/>
        <display value="Bones XR Bone Age"/>
      </coding>
    </code>
    <valueQuantity>
      <value value="123.0"/>
      <units value="mo"/>
      <system value="http://unitsofmeasure.org" />
      <code value=""/>
    </valueQuantity>
    
    <appliesDateTime value="2012-07-08"/>
    <status value="final"/>
    <reliability value="ok"/>
    <subject>
      <reference value="Patient/ID7777704"/>
    </subject>
  </Observation>
  
  </resource>
  <transaction>
    <method value="PUT"/>
    <url value="Observation/ID3505-lab"/>
  </transaction>
</entry>
  <entry>
  <resource>
    
    
    <FamilyMemberHistory>
  <id value="ID13-fmh"/>
      <extension url="http://fhir-registry.smarthealthit.org/StructureDefinition/family-history#height">
        <valueQuantity>
          <value value="178"/>
          <units value="centimeters"/>
          <system value="http://unitsofmeasure.org"/>
          <code value="cm"/>
        </valueQuantity>
      </extension>
      
      <text>
        <status value="generated"/>
        <div xmlns="http://www.w3.org/1999/xhtml">Data on patient's Father</div>
      </text>
      <patient>
         <reference value="Patient/ID7777704"/>
      </patient>
      <relation>
        <relationship>
          <coding>
            <system value="http://hl7.org/fhir/v3/RoleCode"/>
            <code value="FTH"/>
            <display value="father"/>
          </coding>
        </relationship>
      </relation>
    </FamilyMemberHistory>
  
  </resource>
  <transaction>
    <method value="PUT"/>
    <url value="FamilyMemberHistory/ID13-fmh"/>
  </transaction>
</entry>
  <entry>
  <resource>
    
    
    <FamilyMemberHistory>
  <id value="ID14-fmh"/>
      <extension url="http://fhir-registry.smarthealthit.org/StructureDefinition/family-history#height">
        <valueQuantity>
          <value value="164"/>
          <units value="centimeters"/>
          <system value="http://unitsofmeasure.org"/>
          <code value="cm"/>
        </valueQuantity>
      </extension>
      
      <text>
        <status value="generated"/>
        <div xmlns="http://www.w3.org/1999/xhtml">Data on patient's Mother</div>
      </text>
      <patient>
         <reference value="Patient/ID7777704"/>
      </patient>
      <relation>
        <relationship>
          <coding>
            <system value="http://hl7.org/fhir/v3/RoleCode"/>
            <code value="MTH"/>
            <display value="mother"/>
          </coding>
        </relationship>
      </relation>
    </FamilyMemberHistory>
  
  </resource>
  <transaction>
    <method value="PUT"/>
    <url value="FamilyMemberHistory/ID14-fmh"/>
  </transaction>
</entry>

</Bundle>
