<?xml version="1.0" encoding="UTF-8"?>
<Bundle xmlns="http://hl7.org/fhir">
    <type value="transaction"/>

  <entry>
  <resource>
    
    
  <Patient>
    <id value="ID1614502"/>
    <text>
      <status value="generated"/>
      <div xmlns="http://www.w3.org/1999/xhtml">
        <p>Susan Williams</p>
      </div>
    </text>
    <identifier>
      <use value="usual"/>
      <type>
        <coding>
          <system value="http://hl7.org/fhir/v2/0203"/>
          <code value="MR"/>
          <display value="Medical record number"/>
        </coding>
      </type>
      <system value="http://hospital.smarthealthit.org"/>
      <value value="1614502"/>
    </identifier>
    <name>
      <use value="official"/>
      <family value="Williams"/>
      <given value="Susan"/>
      <given value="N."/>
    </name>
    <telecom>
      <system value="phone"/>
      <value value="800-651-2242"/>
      <use value="home"/>
    </telecom>
    <telecom>
      <system value="phone"/>
      <value value="800-471-8810"/>
      <use value="mobile"/>
    </telecom>
    <telecom>
      <system value="email"/>
      <value value="susan.williams@example.com"/>
    </telecom>
    <gender value="female" />
    <birthDate value="2006-11-22" />
    <address>
      <use value="home"/>
      <line value="27 South Ave"/>
      <city value="Tulsa"/>
      <state value="OK"/>
      <postalCode value="74126"/>
      <country value="USA"/>
    </address>
    <active value="true"/>
  </Patient>
  
  </resource>
  <transaction>
    <method value="PUT"/>
    <url value="Patient/ID1614502"/>
  </transaction>
</entry>
<entry>
  <resource>
    
    
<MedicationPrescription>
  <id value="ID172-mp"/>
  <text>
    <status value="generated"/>
    <div xmlns="http://www.w3.org/1999/xhtml">
      Amoxicillin 40 MG/ML Oral Suspension (rxnorm: 313850)
    </div>
  </text>

  <contained>
    <Medication>
      <id value="med"/>
      <name value="Amoxicillin 40 MG/ML Oral Suspension"/>
      <code>
	<coding>
	<system value="http://www.nlm.nih.gov/research/umls/rxnorm"/>
	  <code value="313850"/>
	  <display value="Amoxicillin 40 MG/ML Oral Suspension"/>
	</coding>
      </code>
    </Medication>
  </contained>

  <status value="active" />
  <patient>
    <reference value="Patient/ID1614502"/>
  </patient>

  <medication>
    <reference value="#med"/>
  </medication>

  <dosageInstruction>
    <scheduledTiming>
      <repeat>
        <bounds>
          <start value="2007-09-14"/>
        </bounds>
        <frequency value="2"/>
        <duration value="1"/>
        <durationUnits value="d"/>
      </repeat>
      
    </scheduledTiming>
    <doseQuantity>
      <value value="15"/>
      <units value="mL"/>
      <system value="http://unitsofmeasure.org"/>
      <code value="mL"/>
    </doseQuantity>
    
    <text value="15 mL bid x 10 days"/>
  </dosageInstruction>
  <dispense>
     <numberOfRepeatsAllowed value="1"/>
     
     <quantity>
        <value value="1"/>
        <units value="mL"/>
        <system value="http://unitsofmeasure.org"/>
        <code value="mL"/>
     </quantity>
     
     <expectedSupplyDuration>
        <value value="10"/>
        <units value="days"/>
        <system value="http://unitsofmeasure.org"/>
        <code value="d"/>
     </expectedSupplyDuration>
     
  </dispense>
  
</MedicationPrescription>

  </resource>
  <transaction>
    <method value="PUT"/>
    <url value="MedicationPrescription/ID172-mp"/>
  </transaction>
</entry>
<entry>
  <resource>
    
    
<MedicationDispense>
  <id value="ID101-md"/>
  <!--  insert contents here  -->
   <text>
    <status value="generated"/>
    <div xmlns="http://www.w3.org/1999/xhtml">
      Dispensed 200 tablets = 10 day supply of Amoxicillin 40 MG/ML Oral Suspension
    </div>
  </text>  

  <contained>
    <Medication>
      <id value="med"/>
      <name value="Amoxicillin 40 MG/ML Oral Suspension"/>
      <code>
	<coding>
	<system value="http://www.nlm.nih.gov/research/umls/rxnorm"/>
	  <code value="313850"/>
	  <display value="Amoxicillin 40 MG/ML Oral Suspension"/>
	</coding>
      </code>
    </Medication>
  </contained>
  
  <status value="completed"/>

  <patient>
    <reference value="Patient/ID1614502"/>
  </patient>

  <authorizingPrescription>
    <reference value="MedicationPrescription/ID172-mp"/>
  </authorizingPrescription>

  <quantity>
      <value value="200"/>
      <units value="tablets"/>
      <system value="http://unitsofmeasure.org"/>
      <code value="{tablets}"/>
  </quantity>

  <daysSupply>
      <value value="10" />
      <units value="days" />
      <system value="http://unitsofmeasure.org" />
      <code value="d" />
  </daysSupply>

  <medication>
      <reference value="#med"/>
  </medication>

  <whenHandedOver value="2007-09-14"/>

</MedicationDispense>

  </resource>
  <transaction>
    <method value="PUT"/>
    <url value="MedicationDispense/ID101-md"/>
  </transaction>
</entry>
<entry>
  <resource>
    
    
<MedicationPrescription>
  <id value="ID173-mp"/>
  <text>
    <status value="generated"/>
    <div xmlns="http://www.w3.org/1999/xhtml">
      Clotrimazole 10 MG/ML Topical Cream (rxnorm: 309367)
    </div>
  </text>

  <contained>
    <Medication>
      <id value="med"/>
      <name value="Clotrimazole 10 MG/ML Topical Cream"/>
      <code>
	<coding>
	<system value="http://www.nlm.nih.gov/research/umls/rxnorm"/>
	  <code value="309367"/>
	  <display value="Clotrimazole 10 MG/ML Topical Cream"/>
	</coding>
      </code>
    </Medication>
  </contained>

  <status value="active" />
  <patient>
    <reference value="Patient/ID1614502"/>
  </patient>

  <medication>
    <reference value="#med"/>
  </medication>

  <dosageInstruction>
    <scheduledTiming>
      <repeat>
        <bounds>
          <start value="2007-10-28"/>
        </bounds>
        <frequency value="2"/>
        <duration value="1"/>
        <durationUnits value="d"/>
      </repeat>
      
    </scheduledTiming>
    <text value="apply bid to affected area"/>
  </dosageInstruction>
  <dispense>
     <numberOfRepeatsAllowed value="1"/>
     
     <quantity>
        <value value="1"/>
        <units value=""/>
        <system value="http://unitsofmeasure.org"/>
        <code value=""/>
     </quantity>
     
     <expectedSupplyDuration>
        <value value="30"/>
        <units value="days"/>
        <system value="http://unitsofmeasure.org"/>
        <code value="d"/>
     </expectedSupplyDuration>
     
  </dispense>
  
</MedicationPrescription>

  </resource>
  <transaction>
    <method value="PUT"/>
    <url value="MedicationPrescription/ID173-mp"/>
  </transaction>
</entry>
<entry>
  <resource>
    
    
<MedicationDispense>
  <id value="ID100-md"/>
  <!--  insert contents here  -->
   <text>
    <status value="generated"/>
    <div xmlns="http://www.w3.org/1999/xhtml">
      Dispensed 30 tablets = 7 day supply of Clotrimazole 10 MG/ML Topical Cream
    </div>
  </text>  

  <contained>
    <Medication>
      <id value="med"/>
      <name value="Clotrimazole 10 MG/ML Topical Cream"/>
      <code>
	<coding>
	<system value="http://www.nlm.nih.gov/research/umls/rxnorm"/>
	  <code value="309367"/>
	  <display value="Clotrimazole 10 MG/ML Topical Cream"/>
	</coding>
      </code>
    </Medication>
  </contained>
  
  <status value="completed"/>

  <patient>
    <reference value="Patient/ID1614502"/>
  </patient>

  <authorizingPrescription>
    <reference value="MedicationPrescription/ID173-mp"/>
  </authorizingPrescription>

  <quantity>
      <value value="30"/>
      <units value="tablets"/>
      <system value="http://unitsofmeasure.org"/>
      <code value="{tablets}"/>
  </quantity>

  <daysSupply>
      <value value="7" />
      <units value="days" />
      <system value="http://unitsofmeasure.org" />
      <code value="d" />
  </daysSupply>

  <medication>
      <reference value="#med"/>
  </medication>

  <whenHandedOver value="2008-04-03"/>

</MedicationDispense>

  </resource>
  <transaction>
    <method value="PUT"/>
    <url value="MedicationDispense/ID100-md"/>
  </transaction>
</entry>
<entry>
  <resource>
    
    
<MedicationDispense>
  <id value="ID98-md"/>
  <!--  insert contents here  -->
   <text>
    <status value="generated"/>
    <div xmlns="http://www.w3.org/1999/xhtml">
      Dispensed 30 tablets = 10 day supply of Clotrimazole 10 MG/ML Topical Cream
    </div>
  </text>  

  <contained>
    <Medication>
      <id value="med"/>
      <name value="Clotrimazole 10 MG/ML Topical Cream"/>
      <code>
	<coding>
	<system value="http://www.nlm.nih.gov/research/umls/rxnorm"/>
	  <code value="309367"/>
	  <display value="Clotrimazole 10 MG/ML Topical Cream"/>
	</coding>
      </code>
    </Medication>
  </contained>
  
  <status value="completed"/>

  <patient>
    <reference value="Patient/ID1614502"/>
  </patient>

  <authorizingPrescription>
    <reference value="MedicationPrescription/ID173-mp"/>
  </authorizingPrescription>

  <quantity>
      <value value="30"/>
      <units value="tablets"/>
      <system value="http://unitsofmeasure.org"/>
      <code value="{tablets}"/>
  </quantity>

  <daysSupply>
      <value value="10" />
      <units value="days" />
      <system value="http://unitsofmeasure.org" />
      <code value="d" />
  </daysSupply>

  <medication>
      <reference value="#med"/>
  </medication>

  <whenHandedOver value="2007-10-28"/>

</MedicationDispense>

  </resource>
  <transaction>
    <method value="PUT"/>
    <url value="MedicationDispense/ID98-md"/>
  </transaction>
</entry>
<entry>
  <resource>
    
    
<MedicationPrescription>
  <id value="ID174-mp"/>
  <text>
    <status value="generated"/>
    <div xmlns="http://www.w3.org/1999/xhtml">
      Amoxicillin 25 MG/ML Oral Suspension (rxnorm: 313797)
    </div>
  </text>

  <contained>
    <Medication>
      <id value="med"/>
      <name value="Amoxicillin 25 MG/ML Oral Suspension"/>
      <code>
	<coding>
	<system value="http://www.nlm.nih.gov/research/umls/rxnorm"/>
	  <code value="313797"/>
	  <display value="Amoxicillin 25 MG/ML Oral Suspension"/>
	</coding>
      </code>
    </Medication>
  </contained>

  <status value="active" />
  <patient>
    <reference value="Patient/ID1614502"/>
  </patient>

  <medication>
    <reference value="#med"/>
  </medication>

  <dosageInstruction>
    <scheduledTiming>
      <repeat>
        <bounds>
          <start value="2007-10-28"/>
        </bounds>
        <frequency value="2"/>
        <duration value="1"/>
        <durationUnits value="d"/>
      </repeat>
      
    </scheduledTiming>
    <doseQuantity>
      <value value="10"/>
      <units value="mL"/>
      <system value="http://unitsofmeasure.org"/>
      <code value="mL"/>
    </doseQuantity>
    
    <text value="10 mL bid x 10 days"/>
  </dosageInstruction>
  <dispense>
     <numberOfRepeatsAllowed value="1"/>
     
     <quantity>
        <value value="1"/>
        <units value="mL"/>
        <system value="http://unitsofmeasure.org"/>
        <code value="mL"/>
     </quantity>
     
     <expectedSupplyDuration>
        <value value="10"/>
        <units value="days"/>
        <system value="http://unitsofmeasure.org"/>
        <code value="d"/>
     </expectedSupplyDuration>
     
  </dispense>
  
</MedicationPrescription>

  </resource>
  <transaction>
    <method value="PUT"/>
    <url value="MedicationPrescription/ID174-mp"/>
  </transaction>
</entry>
<entry>
  <resource>
    
    
<MedicationDispense>
  <id value="ID94-md"/>
  <!--  insert contents here  -->
   <text>
    <status value="generated"/>
    <div xmlns="http://www.w3.org/1999/xhtml">
      Dispensed 150 tablets = 10 day supply of Amoxicillin 25 MG/ML Oral Suspension
    </div>
  </text>  

  <contained>
    <Medication>
      <id value="med"/>
      <name value="Amoxicillin 25 MG/ML Oral Suspension"/>
      <code>
	<coding>
	<system value="http://www.nlm.nih.gov/research/umls/rxnorm"/>
	  <code value="313797"/>
	  <display value="Amoxicillin 25 MG/ML Oral Suspension"/>
	</coding>
      </code>
    </Medication>
  </contained>
  
  <status value="completed"/>

  <patient>
    <reference value="Patient/ID1614502"/>
  </patient>

  <authorizingPrescription>
    <reference value="MedicationPrescription/ID174-mp"/>
  </authorizingPrescription>

  <quantity>
      <value value="150"/>
      <units value="tablets"/>
      <system value="http://unitsofmeasure.org"/>
      <code value="{tablets}"/>
  </quantity>

  <daysSupply>
      <value value="10" />
      <units value="days" />
      <system value="http://unitsofmeasure.org" />
      <code value="d" />
  </daysSupply>

  <medication>
      <reference value="#med"/>
  </medication>

  <whenHandedOver value="2007-10-28"/>

</MedicationDispense>

  </resource>
  <transaction>
    <method value="PUT"/>
    <url value="MedicationDispense/ID94-md"/>
  </transaction>
</entry>
<entry>
  <resource>
    
    
<MedicationPrescription>
  <id value="ID175-mp"/>
  <text>
    <status value="generated"/>
    <div xmlns="http://www.w3.org/1999/xhtml">
      cefdinir 25 MG/ML Oral Suspension (rxnorm: 309054)
    </div>
  </text>

  <contained>
    <Medication>
      <id value="med"/>
      <name value="cefdinir 25 MG/ML Oral Suspension"/>
      <code>
	<coding>
	<system value="http://www.nlm.nih.gov/research/umls/rxnorm"/>
	  <code value="309054"/>
	  <display value="cefdinir 25 MG/ML Oral Suspension"/>
	</coding>
      </code>
    </Medication>
  </contained>

  <status value="active" />
  <patient>
    <reference value="Patient/ID1614502"/>
  </patient>

  <medication>
    <reference value="#med"/>
  </medication>

  <dosageInstruction>
    <scheduledTiming>
      <repeat>
        <bounds>
          <start value="2007-12-02"/>
        </bounds>
        <frequency value="2"/>
        <duration value="1"/>
        <durationUnits value="d"/>
      </repeat>
      
    </scheduledTiming>
    <doseQuantity>
      <value value="7"/>
      <units value="mL"/>
      <system value="http://unitsofmeasure.org"/>
      <code value="mL"/>
    </doseQuantity>
    
    <text value="7 mL bid x 10 days"/>
  </dosageInstruction>
  <dispense>
     <numberOfRepeatsAllowed value="1"/>
     
     <quantity>
        <value value="1"/>
        <units value="mL"/>
        <system value="http://unitsofmeasure.org"/>
        <code value="mL"/>
     </quantity>
     
     <expectedSupplyDuration>
        <value value="10"/>
        <units value="days"/>
        <system value="http://unitsofmeasure.org"/>
        <code value="d"/>
     </expectedSupplyDuration>
     
  </dispense>
  
</MedicationPrescription>

  </resource>
  <transaction>
    <method value="PUT"/>
    <url value="MedicationPrescription/ID175-mp"/>
  </transaction>
</entry>
<entry>
  <resource>
    
    
<MedicationDispense>
  <id value="ID109-md"/>
  <!--  insert contents here  -->
   <text>
    <status value="generated"/>
    <div xmlns="http://www.w3.org/1999/xhtml">
      Dispensed 60 tablets = 10 day supply of cefdinir 25 MG/ML Oral Suspension
    </div>
  </text>  

  <contained>
    <Medication>
      <id value="med"/>
      <name value="cefdinir 25 MG/ML Oral Suspension"/>
      <code>
	<coding>
	<system value="http://www.nlm.nih.gov/research/umls/rxnorm"/>
	  <code value="309054"/>
	  <display value="cefdinir 25 MG/ML Oral Suspension"/>
	</coding>
      </code>
    </Medication>
  </contained>
  
  <status value="completed"/>

  <patient>
    <reference value="Patient/ID1614502"/>
  </patient>

  <authorizingPrescription>
    <reference value="MedicationPrescription/ID175-mp"/>
  </authorizingPrescription>

  <quantity>
      <value value="60"/>
      <units value="tablets"/>
      <system value="http://unitsofmeasure.org"/>
      <code value="{tablets}"/>
  </quantity>

  <daysSupply>
      <value value="10" />
      <units value="days" />
      <system value="http://unitsofmeasure.org" />
      <code value="d" />
  </daysSupply>

  <medication>
      <reference value="#med"/>
  </medication>

  <whenHandedOver value="2007-12-02"/>

</MedicationDispense>

  </resource>
  <transaction>
    <method value="PUT"/>
    <url value="MedicationDispense/ID109-md"/>
  </transaction>
</entry>
<entry>
  <resource>
    
    
<MedicationPrescription>
  <id value="ID176-mp"/>
  <text>
    <status value="generated"/>
    <div xmlns="http://www.w3.org/1999/xhtml">
      Ibuprofen 20 MG/ML Oral Suspension (rxnorm: 197803)
    </div>
  </text>

  <contained>
    <Medication>
      <id value="med"/>
      <name value="Ibuprofen 20 MG/ML Oral Suspension"/>
      <code>
	<coding>
	<system value="http://www.nlm.nih.gov/research/umls/rxnorm"/>
	  <code value="197803"/>
	  <display value="Ibuprofen 20 MG/ML Oral Suspension"/>
	</coding>
      </code>
    </Medication>
  </contained>

  <status value="active" />
  <patient>
    <reference value="Patient/ID1614502"/>
  </patient>

  <medication>
    <reference value="#med"/>
  </medication>

  <dosageInstruction>
    <scheduledTiming>
      <repeat>
        <bounds>
          <start value="2008-04-03"/>
        </bounds>
        <frequency value="4"/>
        <duration value="1"/>
        <durationUnits value="d"/>
      </repeat>
      
    </scheduledTiming>
    <doseQuantity>
      <value value="7"/>
      <units value="mL"/>
      <system value="http://unitsofmeasure.org"/>
      <code value="mL"/>
    </doseQuantity>
    
    <asNeededBoolean value="true"/>
    
    <text value="7 mL q6h prn"/>
  </dosageInstruction>
  <dispense>
     <numberOfRepeatsAllowed value="1"/>
     
     <quantity>
        <value value="1"/>
        <units value="mL"/>
        <system value="http://unitsofmeasure.org"/>
        <code value="mL"/>
     </quantity>
     
     <expectedSupplyDuration>
        <value value="30"/>
        <units value="days"/>
        <system value="http://unitsofmeasure.org"/>
        <code value="d"/>
     </expectedSupplyDuration>
     
  </dispense>
  
</MedicationPrescription>

  </resource>
  <transaction>
    <method value="PUT"/>
    <url value="MedicationPrescription/ID176-mp"/>
  </transaction>
</entry>
<entry>
  <resource>
    
    
<MedicationDispense>
  <id value="ID111-md"/>
  <!--  insert contents here  -->
   <text>
    <status value="generated"/>
    <div xmlns="http://www.w3.org/1999/xhtml">
      Dispensed 120 tablets = 6 day supply of Ibuprofen 20 MG/ML Oral Suspension
    </div>
  </text>  

  <contained>
    <Medication>
      <id value="med"/>
      <name value="Ibuprofen 20 MG/ML Oral Suspension"/>
      <code>
	<coding>
	<system value="http://www.nlm.nih.gov/research/umls/rxnorm"/>
	  <code value="197803"/>
	  <display value="Ibuprofen 20 MG/ML Oral Suspension"/>
	</coding>
      </code>
    </Medication>
  </contained>
  
  <status value="completed"/>

  <patient>
    <reference value="Patient/ID1614502"/>
  </patient>

  <authorizingPrescription>
    <reference value="MedicationPrescription/ID176-mp"/>
  </authorizingPrescription>

  <quantity>
      <value value="120"/>
      <units value="tablets"/>
      <system value="http://unitsofmeasure.org"/>
      <code value="{tablets}"/>
  </quantity>

  <daysSupply>
      <value value="6" />
      <units value="days" />
      <system value="http://unitsofmeasure.org" />
      <code value="d" />
  </daysSupply>

  <medication>
      <reference value="#med"/>
  </medication>

  <whenHandedOver value="2008-04-03"/>

</MedicationDispense>

  </resource>
  <transaction>
    <method value="PUT"/>
    <url value="MedicationDispense/ID111-md"/>
  </transaction>
</entry>
<entry>
  <resource>
    
    
<MedicationPrescription>
  <id value="ID177-mp"/>
  <text>
    <status value="generated"/>
    <div xmlns="http://www.w3.org/1999/xhtml">
      Amoxicillin 80 MG/ML Oral Suspension (rxnorm: 308189)
    </div>
  </text>

  <contained>
    <Medication>
      <id value="med"/>
      <name value="Amoxicillin 80 MG/ML Oral Suspension"/>
      <code>
	<coding>
	<system value="http://www.nlm.nih.gov/research/umls/rxnorm"/>
	  <code value="308189"/>
	  <display value="Amoxicillin 80 MG/ML Oral Suspension"/>
	</coding>
      </code>
    </Medication>
  </contained>

  <status value="active" />
  <patient>
    <reference value="Patient/ID1614502"/>
  </patient>

  <medication>
    <reference value="#med"/>
  </medication>

  <dosageInstruction>
    <scheduledTiming>
      <repeat>
        <bounds>
          <start value="2008-04-03"/>
        </bounds>
        <frequency value="2"/>
        <duration value="1"/>
        <durationUnits value="d"/>
      </repeat>
      
    </scheduledTiming>
    <doseQuantity>
      <value value="7"/>
      <units value="mL"/>
      <system value="http://unitsofmeasure.org"/>
      <code value="mL"/>
    </doseQuantity>
    
    <text value="7 mL bid x 10 days"/>
  </dosageInstruction>
  <dispense>
     <numberOfRepeatsAllowed value="1"/>
     
     <quantity>
        <value value="1"/>
        <units value="mL"/>
        <system value="http://unitsofmeasure.org"/>
        <code value="mL"/>
     </quantity>
     
     <expectedSupplyDuration>
        <value value="10"/>
        <units value="days"/>
        <system value="http://unitsofmeasure.org"/>
        <code value="d"/>
     </expectedSupplyDuration>
     
  </dispense>
  
</MedicationPrescription>

  </resource>
  <transaction>
    <method value="PUT"/>
    <url value="MedicationPrescription/ID177-mp"/>
  </transaction>
</entry>
<entry>
  <resource>
    
    
<MedicationDispense>
  <id value="ID107-md"/>
  <!--  insert contents here  -->
   <text>
    <status value="generated"/>
    <div xmlns="http://www.w3.org/1999/xhtml">
      Dispensed 150 tablets = 10 day supply of Amoxicillin 80 MG/ML Oral Suspension
    </div>
  </text>  

  <contained>
    <Medication>
      <id value="med"/>
      <name value="Amoxicillin 80 MG/ML Oral Suspension"/>
      <code>
	<coding>
	<system value="http://www.nlm.nih.gov/research/umls/rxnorm"/>
	  <code value="308189"/>
	  <display value="Amoxicillin 80 MG/ML Oral Suspension"/>
	</coding>
      </code>
    </Medication>
  </contained>
  
  <status value="completed"/>

  <patient>
    <reference value="Patient/ID1614502"/>
  </patient>

  <authorizingPrescription>
    <reference value="MedicationPrescription/ID177-mp"/>
  </authorizingPrescription>

  <quantity>
      <value value="150"/>
      <units value="tablets"/>
      <system value="http://unitsofmeasure.org"/>
      <code value="{tablets}"/>
  </quantity>

  <daysSupply>
      <value value="10" />
      <units value="days" />
      <system value="http://unitsofmeasure.org" />
      <code value="d" />
  </daysSupply>

  <medication>
      <reference value="#med"/>
  </medication>

  <whenHandedOver value="2008-11-12"/>

</MedicationDispense>

  </resource>
  <transaction>
    <method value="PUT"/>
    <url value="MedicationDispense/ID107-md"/>
  </transaction>
</entry>
<entry>
  <resource>
    
    
<MedicationDispense>
  <id value="ID105-md"/>
  <!--  insert contents here  -->
   <text>
    <status value="generated"/>
    <div xmlns="http://www.w3.org/1999/xhtml">
      Dispensed 150 tablets = 10 day supply of Amoxicillin 80 MG/ML Oral Suspension
    </div>
  </text>  

  <contained>
    <Medication>
      <id value="med"/>
      <name value="Amoxicillin 80 MG/ML Oral Suspension"/>
      <code>
	<coding>
	<system value="http://www.nlm.nih.gov/research/umls/rxnorm"/>
	  <code value="308189"/>
	  <display value="Amoxicillin 80 MG/ML Oral Suspension"/>
	</coding>
      </code>
    </Medication>
  </contained>
  
  <status value="completed"/>

  <patient>
    <reference value="Patient/ID1614502"/>
  </patient>

  <authorizingPrescription>
    <reference value="MedicationPrescription/ID177-mp"/>
  </authorizingPrescription>

  <quantity>
      <value value="150"/>
      <units value="tablets"/>
      <system value="http://unitsofmeasure.org"/>
      <code value="{tablets}"/>
  </quantity>

  <daysSupply>
      <value value="10" />
      <units value="days" />
      <system value="http://unitsofmeasure.org" />
      <code value="d" />
  </daysSupply>

  <medication>
      <reference value="#med"/>
  </medication>

  <whenHandedOver value="2008-07-11"/>

</MedicationDispense>

  </resource>
  <transaction>
    <method value="PUT"/>
    <url value="MedicationDispense/ID105-md"/>
  </transaction>
</entry>
<entry>
  <resource>
    
    
<MedicationDispense>
  <id value="ID103-md"/>
  <!--  insert contents here  -->
   <text>
    <status value="generated"/>
    <div xmlns="http://www.w3.org/1999/xhtml">
      Dispensed 150 tablets = 10 day supply of Amoxicillin 80 MG/ML Oral Suspension
    </div>
  </text>  

  <contained>
    <Medication>
      <id value="med"/>
      <name value="Amoxicillin 80 MG/ML Oral Suspension"/>
      <code>
	<coding>
	<system value="http://www.nlm.nih.gov/research/umls/rxnorm"/>
	  <code value="308189"/>
	  <display value="Amoxicillin 80 MG/ML Oral Suspension"/>
	</coding>
      </code>
    </Medication>
  </contained>
  
  <status value="completed"/>

  <patient>
    <reference value="Patient/ID1614502"/>
  </patient>

  <authorizingPrescription>
    <reference value="MedicationPrescription/ID177-mp"/>
  </authorizingPrescription>

  <quantity>
      <value value="150"/>
      <units value="tablets"/>
      <system value="http://unitsofmeasure.org"/>
      <code value="{tablets}"/>
  </quantity>

  <daysSupply>
      <value value="10" />
      <units value="days" />
      <system value="http://unitsofmeasure.org" />
      <code value="d" />
  </daysSupply>

  <medication>
      <reference value="#med"/>
  </medication>

  <whenHandedOver value="2008-04-03"/>

</MedicationDispense>

  </resource>
  <transaction>
    <method value="PUT"/>
    <url value="MedicationDispense/ID103-md"/>
  </transaction>
</entry>
<entry>
  <resource>
    
    
<MedicationPrescription>
  <id value="ID178-mp"/>
  <text>
    <status value="generated"/>
    <div xmlns="http://www.w3.org/1999/xhtml">
      Permethrin 10 MG/ML Topical Lotion (rxnorm: 312320)
    </div>
  </text>

  <contained>
    <Medication>
      <id value="med"/>
      <name value="Permethrin 10 MG/ML Topical Lotion"/>
      <code>
	<coding>
	<system value="http://www.nlm.nih.gov/research/umls/rxnorm"/>
	  <code value="312320"/>
	  <display value="Permethrin 10 MG/ML Topical Lotion"/>
	</coding>
      </code>
    </Medication>
  </contained>

  <status value="active" />
  <patient>
    <reference value="Patient/ID1614502"/>
  </patient>

  <medication>
    <reference value="#med"/>
  </medication>

  <dosageInstruction>
    <scheduledTiming>
    </scheduledTiming>
    <text value="apply x1 as directed"/>
  </dosageInstruction>
  <dispense>
     <numberOfRepeatsAllowed value="1"/>
     
     <quantity>
        <value value="1"/>
        <units value=""/>
        <system value="http://unitsofmeasure.org"/>
        <code value=""/>
     </quantity>
     
     <expectedSupplyDuration>
        <value value="1"/>
        <units value="days"/>
        <system value="http://unitsofmeasure.org"/>
        <code value="d"/>
     </expectedSupplyDuration>
     
  </dispense>
  
</MedicationPrescription>

  </resource>
  <transaction>
    <method value="PUT"/>
    <url value="MedicationPrescription/ID178-mp"/>
  </transaction>
</entry>
<entry>
  <resource>
    
    
<MedicationDispense>
  <id value="ID95-md"/>
  <!--  insert contents here  -->
   <text>
    <status value="generated"/>
    <div xmlns="http://www.w3.org/1999/xhtml">
      Dispensed 59 tablets = 7 day supply of Permethrin 10 MG/ML Topical Lotion
    </div>
  </text>  

  <contained>
    <Medication>
      <id value="med"/>
      <name value="Permethrin 10 MG/ML Topical Lotion"/>
      <code>
	<coding>
	<system value="http://www.nlm.nih.gov/research/umls/rxnorm"/>
	  <code value="312320"/>
	  <display value="Permethrin 10 MG/ML Topical Lotion"/>
	</coding>
      </code>
    </Medication>
  </contained>
  
  <status value="completed"/>

  <patient>
    <reference value="Patient/ID1614502"/>
  </patient>

  <authorizingPrescription>
    <reference value="MedicationPrescription/ID178-mp"/>
  </authorizingPrescription>

  <quantity>
      <value value="59"/>
      <units value="tablets"/>
      <system value="http://unitsofmeasure.org"/>
      <code value="{tablets}"/>
  </quantity>

  <daysSupply>
      <value value="7" />
      <units value="days" />
      <system value="http://unitsofmeasure.org" />
      <code value="d" />
  </daysSupply>

  <medication>
      <reference value="#med"/>
  </medication>

  <whenHandedOver value="2009-05-01"/>

</MedicationDispense>

  </resource>
  <transaction>
    <method value="PUT"/>
    <url value="MedicationDispense/ID95-md"/>
  </transaction>
</entry>
<entry>
  <resource>
    
    
<MedicationDispense>
  <id value="ID96-md"/>
  <!--  insert contents here  -->
   <text>
    <status value="generated"/>
    <div xmlns="http://www.w3.org/1999/xhtml">
      Dispensed 59 tablets = 7 day supply of Permethrin 10 MG/ML Topical Lotion
    </div>
  </text>  

  <contained>
    <Medication>
      <id value="med"/>
      <name value="Permethrin 10 MG/ML Topical Lotion"/>
      <code>
	<coding>
	<system value="http://www.nlm.nih.gov/research/umls/rxnorm"/>
	  <code value="312320"/>
	  <display value="Permethrin 10 MG/ML Topical Lotion"/>
	</coding>
      </code>
    </Medication>
  </contained>
  
  <status value="completed"/>

  <patient>
    <reference value="Patient/ID1614502"/>
  </patient>

  <authorizingPrescription>
    <reference value="MedicationPrescription/ID178-mp"/>
  </authorizingPrescription>

  <quantity>
      <value value="59"/>
      <units value="tablets"/>
      <system value="http://unitsofmeasure.org"/>
      <code value="{tablets}"/>
  </quantity>

  <daysSupply>
      <value value="7" />
      <units value="days" />
      <system value="http://unitsofmeasure.org" />
      <code value="d" />
  </daysSupply>

  <medication>
      <reference value="#med"/>
  </medication>

  <whenHandedOver value="2009-05-09"/>

</MedicationDispense>

  </resource>
  <transaction>
    <method value="PUT"/>
    <url value="MedicationDispense/ID96-md"/>
  </transaction>
</entry>
  <entry>
  <resource>
    
    
  <Condition>
  <id value="ID66-c"/>
    <text>
     <status value="generated"/>
     <div xmlns="http://www.w3.org/1999/xhtml">Cervicitis and endocervicitis</div>   
   </text>
    <patient>
      <reference value="Patient/ID1614502"/>
    </patient>
    <code> 
      <coding>
        <system value="http://snomed.info/sct"/>
        <code value="237084006"/>
        <display value="Cervicitis and endocervicitis"/>
      </coding>
      <text value="Cervicitis and endocervicitis"/>
    </code>
   <clinicalStatus value="confirmed"/>
   <onsetDateTime value="2007-10-28"/>
   
  </Condition>
  
  </resource>
  <transaction>
    <method value="PUT"/>
    <url value="Condition/ID66-c"/>
  </transaction>
</entry>
  <entry>
  <resource>
    
    
  <Condition>
  <id value="ID67-c"/>
    <text>
     <status value="generated"/>
     <div xmlns="http://www.w3.org/1999/xhtml">Diaper rash</div>   
   </text>
    <patient>
      <reference value="Patient/ID1614502"/>
    </patient>
    <code> 
      <coding>
        <system value="http://snomed.info/sct"/>
        <code value="91487003"/>
        <display value="Diaper rash"/>
      </coding>
      <text value="Diaper rash"/>
    </code>
   <clinicalStatus value="confirmed"/>
   <onsetDateTime value="2007-10-28"/>
   
  </Condition>
  
  </resource>
  <transaction>
    <method value="PUT"/>
    <url value="Condition/ID67-c"/>
  </transaction>
</entry>
  <entry>
  <resource>
    
    
  <Condition>
  <id value="ID68-c"/>
    <text>
     <status value="generated"/>
     <div xmlns="http://www.w3.org/1999/xhtml">Otitis media</div>   
   </text>
    <patient>
      <reference value="Patient/ID1614502"/>
    </patient>
    <code> 
      <coding>
        <system value="http://snomed.info/sct"/>
        <code value="65363002"/>
        <display value="Otitis media"/>
      </coding>
      <text value="Otitis media"/>
    </code>
   <clinicalStatus value="confirmed"/>
   <onsetDateTime value="2007-10-28"/>
   
  </Condition>
  
  </resource>
  <transaction>
    <method value="PUT"/>
    <url value="Condition/ID68-c"/>
  </transaction>
</entry>
  <entry>
  <resource>
    
    
  <Condition>
  <id value="ID69-c"/>
    <text>
     <status value="generated"/>
     <div xmlns="http://www.w3.org/1999/xhtml">Foreign body in larynx</div>   
   </text>
    <patient>
      <reference value="Patient/ID1614502"/>
    </patient>
    <code> 
      <coding>
        <system value="http://snomed.info/sct"/>
        <code value="425229001"/>
        <display value="Foreign body in larynx"/>
      </coding>
      <text value="Foreign body in larynx"/>
    </code>
   <clinicalStatus value="confirmed"/>
   <onsetDateTime value="2007-12-01"/>
   
  </Condition>
  
  </resource>
  <transaction>
    <method value="PUT"/>
    <url value="Condition/ID69-c"/>
  </transaction>
</entry>
  <entry>
  <resource>
    
    
  <Condition>
  <id value="ID70-c"/>
    <text>
     <status value="generated"/>
     <div xmlns="http://www.w3.org/1999/xhtml">Vomiting</div>   
   </text>
    <patient>
      <reference value="Patient/ID1614502"/>
    </patient>
    <code> 
      <coding>
        <system value="http://snomed.info/sct"/>
        <code value="422400008"/>
        <display value="Vomiting"/>
      </coding>
      <text value="Vomiting"/>
    </code>
   <clinicalStatus value="confirmed"/>
   <onsetDateTime value="2007-12-01"/>
   
  </Condition>
  
  </resource>
  <transaction>
    <method value="PUT"/>
    <url value="Condition/ID70-c"/>
  </transaction>
</entry>
  <entry>
  <resource>
    
    
  <Condition>
  <id value="ID71-c"/>
    <text>
     <status value="generated"/>
     <div xmlns="http://www.w3.org/1999/xhtml">Acute upper respiratory infection</div>   
   </text>
    <patient>
      <reference value="Patient/ID1614502"/>
    </patient>
    <code> 
      <coding>
        <system value="http://snomed.info/sct"/>
        <code value="54150009"/>
        <display value="Acute upper respiratory infection"/>
      </coding>
      <text value="Acute upper respiratory infection"/>
    </code>
   <clinicalStatus value="confirmed"/>
   <onsetDateTime value="2008-02-14"/>
   
  </Condition>
  
  </resource>
  <transaction>
    <method value="PUT"/>
    <url value="Condition/ID71-c"/>
  </transaction>
</entry>
  <entry>
  <resource>
    
    
  <Condition>
  <id value="ID72-c"/>
    <text>
     <status value="generated"/>
     <div xmlns="http://www.w3.org/1999/xhtml">General well-being finding</div>   
   </text>
    <patient>
      <reference value="Patient/ID1614502"/>
    </patient>
    <code> 
      <coding>
        <system value="http://snomed.info/sct"/>
        <code value="81302005"/>
        <display value="General well-being finding"/>
      </coding>
      <text value="General well-being finding"/>
    </code>
   <clinicalStatus value="confirmed"/>
   <onsetDateTime value="2008-02-14"/>
   
  </Condition>
  
  </resource>
  <transaction>
    <method value="PUT"/>
    <url value="Condition/ID72-c"/>
  </transaction>
</entry>
  <entry>
  <resource>
    
    
  <Condition>
  <id value="ID73-c"/>
    <text>
     <status value="generated"/>
     <div xmlns="http://www.w3.org/1999/xhtml">Other and unspecified noninfectious gastroenteritis and colitis</div>   
   </text>
    <patient>
      <reference value="Patient/ID1614502"/>
    </patient>
    <code> 
      <coding>
        <system value="http://snomed.info/sct"/>
        <code value="25374005"/>
        <display value="Other and unspecified noninfectious gastroenteritis and colitis"/>
      </coding>
      <text value="Other and unspecified noninfectious gastroenteritis and colitis"/>
    </code>
   <clinicalStatus value="confirmed"/>
   <onsetDateTime value="2008-12-12"/>
   
  </Condition>
  
  </resource>
  <transaction>
    <method value="PUT"/>
    <url value="Condition/ID73-c"/>
  </transaction>
</entry>
  <entry>
  <resource>
    
    
    <Immunization>
  <id value="ID5-i"/>
        <text>
            <status value="generated"/>
            <div xmlns="http://www.w3.org/1999/xhtml">measles, mumps and rubella virus vaccine</div>
        </text>
        <patient>
            <reference value="Patient/ID1614502"/>
        </patient>
        <date value="2010-03-11"/>
        <vaccineType>
            <coding>
        	<system value="http://www2a.cdc.gov/vaccines/IIS/IISStandards/vaccines.asp?rpt=cvx"/>
		 <code value="03"/>
       		 <display value="measles, mumps and rubella virus vaccine"/>
		</coding>
        </vaccineType>
        <reported value="false"/>
        <wasNotGiven value="false"/>
    </Immunization>
  
  </resource>
  <transaction>
    <method value="PUT"/>
    <url value="Immunization/ID5-i"/>
  </transaction>
</entry>
  <entry>
  <resource>
    
    
    <Immunization>
  <id value="ID6-i"/>
        <text>
            <status value="generated"/>
            <div xmlns="http://www.w3.org/1999/xhtml">measles, mumps and rubella virus vaccine</div>
        </text>
        <patient>
            <reference value="Patient/ID1614502"/>
        </patient>
        <date value="2010-06-11"/>
        <vaccineType>
            <coding>
        	<system value="http://www2a.cdc.gov/vaccines/IIS/IISStandards/vaccines.asp?rpt=cvx"/>
		 <code value="03"/>
       		 <display value="measles, mumps and rubella virus vaccine"/>
		</coding>
        </vaccineType>
        <reported value="false"/>
        <wasNotGiven value="false"/>
    </Immunization>
  
  </resource>
  <transaction>
    <method value="PUT"/>
    <url value="Immunization/ID6-i"/>
  </transaction>
</entry>
<entry>
  <resource>
    
    
  <Observation>
  <id value="ID2-smokingstatus"/>
    <text>
      <status value="generated"/>
      <div xmlns="http://www.w3.org/1999/xhtml">Tobacco smoking status: Former smoker</div>
    </text>
    <code>
      <coding>
        <system value="http://loinc.org"/>
        <code value="72166-2"/>
        <display value="Tobacco smoking status"/>
      </coding>
    </code>
    <valueCodeableConcept>
      <coding>
        <system value="http://snomed.info/sct"/>
        <code value="8517006"/>
        <display value="Former smoker"/>
      </coding>
    </valueCodeableConcept>
    <status value="final"/>
    <reliability value="ok"/>
    <subject>
      <reference value="Patient/ID1614502"/>
    </subject>
  </Observation>
  
  </resource>
  <transaction>
    <method value="PUT"/>
    <url value="Observation/ID2-smokingstatus"/>
  </transaction>
</entry>
<entry>
  <resource>
    
    
  <Observation>
  <id value="ID1614502-gestage"/>
    <text>
      <status value="generated"/>
      <div xmlns="http://www.w3.org/1999/xhtml">2006-11-22: Gestational age at birth = 45.2 weeks</div>
    </text>
    <code>
      <coding>
        <system value="http://loinc.org"/>
        <code value="18185-9"/>
        <display value="Gestational age at birth"/>
      </coding>
    </code>
    <valueQuantity>
      <value value="45.2"/>
      <units value="weeks"/>
      <system value="http://unitsofmeasure.org" />
      <code value="wk"/>
    </valueQuantity>
    
    <appliesDateTime value="2006-11-22"/>
    <status value="final"/>
    <reliability value="ok"/>
    <subject>
      <reference value="Patient/ID1614502"/>
    </subject>
  </Observation>
  
  </resource>
  <transaction>
    <method value="PUT"/>
    <url value="Observation/ID1614502-gestage"/>
  </transaction>
</entry>
  <entry>
  <resource>
    
    
    <List>
  <id value="ID36-l"/>
        <text>
            <status value="generated"/>
            <div xmlns="http://www.w3.org/1999/xhtml">No known allergies</div>
        </text>
        <code>
            <coding>
               <system value="http://loinc.org/"/>
               <code value="52473-6"/>
               <display value="Allergy"/>
            </coding>
        </code>
        <subject>
          <reference value="Patient/ID1614502"/>
        </subject>
        <date value="2000"/>
        <mode value="snapshot"/>
        <emptyReason>
            <coding>
                <system value="http://hl7.org/fhir/list-empty-reason"/>
                <code value="nilknown"/>
                <display value="Nil Known"/>
            </coding>
        </emptyReason>
    </List>
  
  </resource>
  <transaction>
    <method value="PUT"/>
    <url value="List/ID36-l"/>
  </transaction>
</entry>

</Bundle>
