<?xml version="1.0" encoding="UTF-8"?>
<Bundle xmlns="http://hl7.org/fhir">
    <type value="transaction"/>

  <entry>
  <resource>
    
    
  <Patient>
    <id value="ID1213208"/>
    <text>
      <status value="generated"/>
      <div xmlns="http://www.w3.org/1999/xhtml">
        <p>Brian Gracia</p>
      </div>
    </text>
    <identifier>
      <use value="usual"/>
      <type>
        <coding>
          <system value="http://hl7.org/fhir/v2/0203"/>
          <code value="MR"/>
          <display value="Medical record number"/>
        </coding>
      </type>
      <system value="http://hospital.smarthealthit.org"/>
      <value value="1213208"/>
    </identifier>
    <name>
      <use value="official"/>
      <family value="Gracia"/>
      <given value="Brian"/>
      <given value="Q."/>
    </name>
    <telecom>
      <system value="phone"/>
      <value value="800-504-7344"/>
      <use value="home"/>
    </telecom>
    <telecom>
      <system value="email"/>
      <value value="brian.gracia@example.com"/>
    </telecom>
    <gender value="male" />
    <birthDate value="1965-06-22" />
    <address>
      <use value="home"/>
      <line value="25 Church St"/>
      <city value="Bixby"/>
      <state value="OK"/>
      <postalCode value="74008"/>
      <country value="USA"/>
    </address>
    <active value="true"/>
  </Patient>
  
  </resource>
  <request>
    <method value="PUT"/>
    <url value="Patient/ID1213208"/>
  </request>
</entry>
  <entry>
  <resource>
    
    
    <Encounter>
  <id value="ID375"/>
      <text>
        <status value="generated"/>
        <div xmlns="http://www.w3.org/1999/xhtml">1997-05-27: ambulatory encounter</div>
      </text>
      <status value="finished"/>
      <class value="ambulatory"/>
      <patient>
        <reference value="Patient/ID1213208"/>
      </patient>
      <period>
       <start value="1997-05-27"/>
       <end value="1997-05-27"/>
      </period>
    </Encounter>
  
  </resource>
  <request>
    <method value="PUT"/>
    <url value="Encounter/ID375"/>
  </request>
</entry>
  <entry>
  <resource>
    
    
    <Encounter>
  <id value="ID376"/>
      <text>
        <status value="generated"/>
        <div xmlns="http://www.w3.org/1999/xhtml">1997-05-28: ambulatory encounter</div>
      </text>
      <status value="finished"/>
      <class value="ambulatory"/>
      <patient>
        <reference value="Patient/ID1213208"/>
      </patient>
      <period>
       <start value="1997-05-28"/>
       <end value="1997-05-28"/>
      </period>
    </Encounter>
  
  </resource>
  <request>
    <method value="PUT"/>
    <url value="Encounter/ID376"/>
  </request>
</entry>
  <entry>
  <resource>
    
    
    <Encounter>
  <id value="ID377"/>
      <text>
        <status value="generated"/>
        <div xmlns="http://www.w3.org/1999/xhtml">2001-11-28: ambulatory encounter</div>
      </text>
      <status value="finished"/>
      <class value="ambulatory"/>
      <patient>
        <reference value="Patient/ID1213208"/>
      </patient>
      <period>
       <start value="2001-11-28"/>
       <end value="2001-11-28"/>
      </period>
    </Encounter>
  
  </resource>
  <request>
    <method value="PUT"/>
    <url value="Encounter/ID377"/>
  </request>
</entry>
  <entry>
  <resource>
    
    
    <Encounter>
  <id value="ID378"/>
      <text>
        <status value="generated"/>
        <div xmlns="http://www.w3.org/1999/xhtml">2001-11-29: ambulatory encounter</div>
      </text>
      <status value="finished"/>
      <class value="ambulatory"/>
      <patient>
        <reference value="Patient/ID1213208"/>
      </patient>
      <period>
       <start value="2001-11-29"/>
       <end value="2001-11-29"/>
      </period>
    </Encounter>
  
  </resource>
  <request>
    <method value="PUT"/>
    <url value="Encounter/ID378"/>
  </request>
</entry>
  <entry>
  <resource>
    
    
    <Encounter>
  <id value="ID379-e"/>
      <text>
        <status value="generated"/>
        <div xmlns="http://www.w3.org/1999/xhtml">2003-06-05: ambulatory encounter</div>
      </text>
      <status value="finished"/>
      <class value="ambulatory"/>
      <patient>
        <reference value="Patient/ID1213208"/>
      </patient>
      <period>
       <start value="2003-06-05"/>
       <end value="2003-06-05"/>
      </period>
    </Encounter>
  
  </resource>
  <request>
    <method value="PUT"/>
    <url value="Encounter/ID379-e"/>
  </request>
</entry>
  <entry>
  <resource>
    
    
    <Encounter>
  <id value="ID380-e"/>
      <text>
        <status value="generated"/>
        <div xmlns="http://www.w3.org/1999/xhtml">2003-06-06: ambulatory encounter</div>
      </text>
      <status value="finished"/>
      <class value="ambulatory"/>
      <patient>
        <reference value="Patient/ID1213208"/>
      </patient>
      <period>
       <start value="2003-06-06"/>
       <end value="2003-06-06"/>
      </period>
    </Encounter>
  
  </resource>
  <request>
    <method value="PUT"/>
    <url value="Encounter/ID380-e"/>
  </request>
</entry>
  <entry>
  <resource>
    
    
    <Encounter>
  <id value="ID381-e"/>
      <text>
        <status value="generated"/>
        <div xmlns="http://www.w3.org/1999/xhtml">2003-06-09: ambulatory encounter</div>
      </text>
      <status value="finished"/>
      <class value="ambulatory"/>
      <patient>
        <reference value="Patient/ID1213208"/>
      </patient>
      <period>
       <start value="2003-06-09"/>
       <end value="2003-06-09"/>
      </period>
    </Encounter>
  
  </resource>
  <request>
    <method value="PUT"/>
    <url value="Encounter/ID381-e"/>
  </request>
</entry>
  <entry>
  <resource>
    
    
    <Encounter>
  <id value="ID382-e"/>
      <text>
        <status value="generated"/>
        <div xmlns="http://www.w3.org/1999/xhtml">2003-07-03: ambulatory encounter</div>
      </text>
      <status value="finished"/>
      <class value="ambulatory"/>
      <patient>
        <reference value="Patient/ID1213208"/>
      </patient>
      <period>
       <start value="2003-07-03"/>
       <end value="2003-07-03"/>
      </period>
    </Encounter>
  
  </resource>
  <request>
    <method value="PUT"/>
    <url value="Encounter/ID382-e"/>
  </request>
</entry>
  <entry>
  <resource>
    
    
    <Encounter>
  <id value="ID383-e"/>
      <text>
        <status value="generated"/>
        <div xmlns="http://www.w3.org/1999/xhtml">2003-07-23: ambulatory encounter</div>
      </text>
      <status value="finished"/>
      <class value="ambulatory"/>
      <patient>
        <reference value="Patient/ID1213208"/>
      </patient>
      <period>
       <start value="2003-07-23"/>
       <end value="2003-07-23"/>
      </period>
    </Encounter>
  
  </resource>
  <request>
    <method value="PUT"/>
    <url value="Encounter/ID383-e"/>
  </request>
</entry>
  <entry>
  <resource>
    
    
    <Encounter>
  <id value="ID384-e"/>
      <text>
        <status value="generated"/>
        <div xmlns="http://www.w3.org/1999/xhtml">2003-07-24: ambulatory encounter</div>
      </text>
      <status value="finished"/>
      <class value="ambulatory"/>
      <patient>
        <reference value="Patient/ID1213208"/>
      </patient>
      <period>
       <start value="2003-07-24"/>
       <end value="2003-07-24"/>
      </period>
    </Encounter>
  
  </resource>
  <request>
    <method value="PUT"/>
    <url value="Encounter/ID384-e"/>
  </request>
</entry>
  <entry>
  <resource>
    
    
    <Encounter>
  <id value="ID385-e"/>
      <text>
        <status value="generated"/>
        <div xmlns="http://www.w3.org/1999/xhtml">2003-08-11: ambulatory encounter</div>
      </text>
      <status value="finished"/>
      <class value="ambulatory"/>
      <patient>
        <reference value="Patient/ID1213208"/>
      </patient>
      <period>
       <start value="2003-08-11"/>
       <end value="2003-08-11"/>
      </period>
    </Encounter>
  
  </resource>
  <request>
    <method value="PUT"/>
    <url value="Encounter/ID385-e"/>
  </request>
</entry>
  <entry>
  <resource>
    
    
    <Encounter>
  <id value="ID386-e"/>
      <text>
        <status value="generated"/>
        <div xmlns="http://www.w3.org/1999/xhtml">2003-08-12: ambulatory encounter</div>
      </text>
      <status value="finished"/>
      <class value="ambulatory"/>
      <patient>
        <reference value="Patient/ID1213208"/>
      </patient>
      <period>
       <start value="2003-08-12"/>
       <end value="2003-08-12"/>
      </period>
    </Encounter>
  
  </resource>
  <request>
    <method value="PUT"/>
    <url value="Encounter/ID386-e"/>
  </request>
</entry>
  <entry>
  <resource>
    
    
    <Encounter>
  <id value="ID387-e"/>
      <text>
        <status value="generated"/>
        <div xmlns="http://www.w3.org/1999/xhtml">2003-09-03: ambulatory encounter</div>
      </text>
      <status value="finished"/>
      <class value="ambulatory"/>
      <patient>
        <reference value="Patient/ID1213208"/>
      </patient>
      <period>
       <start value="2003-09-03"/>
       <end value="2003-09-03"/>
      </period>
    </Encounter>
  
  </resource>
  <request>
    <method value="PUT"/>
    <url value="Encounter/ID387-e"/>
  </request>
</entry>
  <entry>
  <resource>
    
    
    <Encounter>
  <id value="ID388-e"/>
      <text>
        <status value="generated"/>
        <div xmlns="http://www.w3.org/1999/xhtml">2003-09-04: ambulatory encounter</div>
      </text>
      <status value="finished"/>
      <class value="ambulatory"/>
      <patient>
        <reference value="Patient/ID1213208"/>
      </patient>
      <period>
       <start value="2003-09-04"/>
       <end value="2003-09-04"/>
      </period>
    </Encounter>
  
  </resource>
  <request>
    <method value="PUT"/>
    <url value="Encounter/ID388-e"/>
  </request>
</entry>
  <entry>
  <resource>
    
    
    <Encounter>
  <id value="ID389-e"/>
      <text>
        <status value="generated"/>
        <div xmlns="http://www.w3.org/1999/xhtml">2003-09-05: ambulatory encounter</div>
      </text>
      <status value="finished"/>
      <class value="ambulatory"/>
      <patient>
        <reference value="Patient/ID1213208"/>
      </patient>
      <period>
       <start value="2003-09-05"/>
       <end value="2003-09-05"/>
      </period>
    </Encounter>
  
  </resource>
  <request>
    <method value="PUT"/>
    <url value="Encounter/ID389-e"/>
  </request>
</entry>
  <entry>
  <resource>
    
    
    <Encounter>
  <id value="ID390"/>
      <text>
        <status value="generated"/>
        <div xmlns="http://www.w3.org/1999/xhtml">2006-12-08: ambulatory encounter</div>
      </text>
      <status value="finished"/>
      <class value="ambulatory"/>
      <patient>
        <reference value="Patient/ID1213208"/>
      </patient>
      <period>
       <start value="2006-12-08"/>
       <end value="2006-12-08"/>
      </period>
    </Encounter>
  
  </resource>
  <request>
    <method value="PUT"/>
    <url value="Encounter/ID390"/>
  </request>
</entry>
  <entry>
  <resource>
    
    
    <Encounter>
  <id value="ID391"/>
      <text>
        <status value="generated"/>
        <div xmlns="http://www.w3.org/1999/xhtml">2006-12-11: ambulatory encounter</div>
      </text>
      <status value="finished"/>
      <class value="ambulatory"/>
      <patient>
        <reference value="Patient/ID1213208"/>
      </patient>
      <period>
       <start value="2006-12-11"/>
       <end value="2006-12-11"/>
      </period>
    </Encounter>
  
  </resource>
  <request>
    <method value="PUT"/>
    <url value="Encounter/ID391"/>
  </request>
</entry>
  <entry>
  <resource>
    
    
    <Encounter>
  <id value="ID392"/>
      <text>
        <status value="generated"/>
        <div xmlns="http://www.w3.org/1999/xhtml">2006-12-14: ambulatory encounter</div>
      </text>
      <status value="finished"/>
      <class value="ambulatory"/>
      <patient>
        <reference value="Patient/ID1213208"/>
      </patient>
      <period>
       <start value="2006-12-14"/>
       <end value="2006-12-14"/>
      </period>
    </Encounter>
  
  </resource>
  <request>
    <method value="PUT"/>
    <url value="Encounter/ID392"/>
  </request>
</entry>
  <entry>
  <resource>
    
    
    <Encounter>
  <id value="ID393"/>
      <text>
        <status value="generated"/>
        <div xmlns="http://www.w3.org/1999/xhtml">2006-12-15: ambulatory encounter</div>
      </text>
      <status value="finished"/>
      <class value="ambulatory"/>
      <patient>
        <reference value="Patient/ID1213208"/>
      </patient>
      <period>
       <start value="2006-12-15"/>
       <end value="2006-12-15"/>
      </period>
    </Encounter>
  
  </resource>
  <request>
    <method value="PUT"/>
    <url value="Encounter/ID393"/>
  </request>
</entry>
  <entry>
  <resource>
    
    
    <Encounter>
  <id value="ID394"/>
      <text>
        <status value="generated"/>
        <div xmlns="http://www.w3.org/1999/xhtml">2006-12-18: ambulatory encounter</div>
      </text>
      <status value="finished"/>
      <class value="ambulatory"/>
      <patient>
        <reference value="Patient/ID1213208"/>
      </patient>
      <period>
       <start value="2006-12-18"/>
       <end value="2006-12-18"/>
      </period>
    </Encounter>
  
  </resource>
  <request>
    <method value="PUT"/>
    <url value="Encounter/ID394"/>
  </request>
</entry>
  <entry>
  <resource>
    
    
  <Observation>
    <id value="ID375-bp"/>
    <text>
      <status value="generated"/>
      <div xmlns="http://www.w3.org/1999/xhtml">1997-05-27: Blood pressure 118/108 mmHg</div>
    </text>
    <code>
      <coding>
        <system value="http://loinc.org"/>
        <code value="55284-4"/>
        <display value="Blood pressure systolic and diastolic"/>
      </coding>
    </code>
    <effectiveDateTime value="1997-05-27"/>
    <status value="final"/>
    <reliability value="ok"/>
    <subject>
      <reference value="Patient/ID1213208"/>
    </subject>
    <related>
      <type value="has-component"/>
      <target>
        <reference value="Observation/ID375-systolic"/>
      </target>
    </related>
    <related>
      <type value="has-component"/>
      <target>
        <reference value="Observation/ID375-diastolic"/>
      </target>
    </related>
    <encounter>
      <reference value="Encounter/ID375"/>
    </encounter>
    

  </Observation>
  
  </resource>
  <request>
    <method value="PUT"/>
    <url value="Observation/ID375-bp"/>
  </request>
</entry>
<entry>
  <resource>
    
    
  <Observation>
  <id value="ID375-systolic"/>
    <text>
      <status value="generated"/>
      <div xmlns="http://www.w3.org/1999/xhtml">1997-05-27: Systolic blood pressure = 118 mm[Hg]</div>
    </text>
    <code>
      <coding>
        <system value="http://loinc.org"/>
        <code value="8480-6"/>
        <display value="Systolic blood pressure"/>
      </coding>
    </code>
    <valueQuantity>
      <value value="118.0"/>
      <unit value="mm[Hg]"/>
      <system value="http://unitsofmeasure.org" />
      <code value="mm[Hg]"/>
    </valueQuantity>
    
    <effectiveDateTime value="1997-05-27"/>
    <status value="final"/>
    <reliability value="ok"/>
    <subject>
      <reference value="Patient/ID1213208"/>
    </subject>
  </Observation>
  
  </resource>
  <request>
    <method value="PUT"/>
    <url value="Observation/ID375-systolic"/>
  </request>
</entry>
<entry>
  <resource>
    
    
  <Observation>
  <id value="ID375-diastolic"/>
    <text>
      <status value="generated"/>
      <div xmlns="http://www.w3.org/1999/xhtml">1997-05-27: Diastolic blood pressure = 108 mm[Hg]</div>
    </text>
    <code>
      <coding>
        <system value="http://loinc.org"/>
        <code value="8462-4"/>
        <display value="Diastolic blood pressure"/>
      </coding>
    </code>
    <valueQuantity>
      <value value="108.0"/>
      <unit value="mm[Hg]"/>
      <system value="http://unitsofmeasure.org" />
      <code value="mm[Hg]"/>
    </valueQuantity>
    
    <effectiveDateTime value="1997-05-27"/>
    <status value="final"/>
    <reliability value="ok"/>
    <subject>
      <reference value="Patient/ID1213208"/>
    </subject>
  </Observation>
  
  </resource>
  <request>
    <method value="PUT"/>
    <url value="Observation/ID375-diastolic"/>
  </request>
</entry>
  <entry>
  <resource>
    
    
  <Observation>
    <id value="ID376-bp"/>
    <text>
      <status value="generated"/>
      <div xmlns="http://www.w3.org/1999/xhtml">1997-05-28: Blood pressure 126/79 mmHg</div>
    </text>
    <code>
      <coding>
        <system value="http://loinc.org"/>
        <code value="55284-4"/>
        <display value="Blood pressure systolic and diastolic"/>
      </coding>
    </code>
    <effectiveDateTime value="1997-05-28"/>
    <status value="final"/>
    <reliability value="ok"/>
    <subject>
      <reference value="Patient/ID1213208"/>
    </subject>
    <related>
      <type value="has-component"/>
      <target>
        <reference value="Observation/ID376-systolic"/>
      </target>
    </related>
    <related>
      <type value="has-component"/>
      <target>
        <reference value="Observation/ID376-diastolic"/>
      </target>
    </related>
    <encounter>
      <reference value="Encounter/ID376"/>
    </encounter>
    

  </Observation>
  
  </resource>
  <request>
    <method value="PUT"/>
    <url value="Observation/ID376-bp"/>
  </request>
</entry>
<entry>
  <resource>
    
    
  <Observation>
  <id value="ID376-systolic"/>
    <text>
      <status value="generated"/>
      <div xmlns="http://www.w3.org/1999/xhtml">1997-05-28: Systolic blood pressure = 126 mm[Hg]</div>
    </text>
    <code>
      <coding>
        <system value="http://loinc.org"/>
        <code value="8480-6"/>
        <display value="Systolic blood pressure"/>
      </coding>
    </code>
    <valueQuantity>
      <value value="126.0"/>
      <unit value="mm[Hg]"/>
      <system value="http://unitsofmeasure.org" />
      <code value="mm[Hg]"/>
    </valueQuantity>
    
    <effectiveDateTime value="1997-05-28"/>
    <status value="final"/>
    <reliability value="ok"/>
    <subject>
      <reference value="Patient/ID1213208"/>
    </subject>
  </Observation>
  
  </resource>
  <request>
    <method value="PUT"/>
    <url value="Observation/ID376-systolic"/>
  </request>
</entry>
<entry>
  <resource>
    
    
  <Observation>
  <id value="ID376-diastolic"/>
    <text>
      <status value="generated"/>
      <div xmlns="http://www.w3.org/1999/xhtml">1997-05-28: Diastolic blood pressure = 79 mm[Hg]</div>
    </text>
    <code>
      <coding>
        <system value="http://loinc.org"/>
        <code value="8462-4"/>
        <display value="Diastolic blood pressure"/>
      </coding>
    </code>
    <valueQuantity>
      <value value="79.0"/>
      <unit value="mm[Hg]"/>
      <system value="http://unitsofmeasure.org" />
      <code value="mm[Hg]"/>
    </valueQuantity>
    
    <effectiveDateTime value="1997-05-28"/>
    <status value="final"/>
    <reliability value="ok"/>
    <subject>
      <reference value="Patient/ID1213208"/>
    </subject>
  </Observation>
  
  </resource>
  <request>
    <method value="PUT"/>
    <url value="Observation/ID376-diastolic"/>
  </request>
</entry>
  <entry>
  <resource>
    
    
  <Observation>
    <id value="ID377-bp"/>
    <text>
      <status value="generated"/>
      <div xmlns="http://www.w3.org/1999/xhtml">2001-11-28: Blood pressure 126/80 mmHg</div>
    </text>
    <code>
      <coding>
        <system value="http://loinc.org"/>
        <code value="55284-4"/>
        <display value="Blood pressure systolic and diastolic"/>
      </coding>
    </code>
    <effectiveDateTime value="2001-11-28"/>
    <status value="final"/>
    <reliability value="ok"/>
    <subject>
      <reference value="Patient/ID1213208"/>
    </subject>
    <related>
      <type value="has-component"/>
      <target>
        <reference value="Observation/ID377-systolic"/>
      </target>
    </related>
    <related>
      <type value="has-component"/>
      <target>
        <reference value="Observation/ID377-diastolic"/>
      </target>
    </related>
    <encounter>
      <reference value="Encounter/ID377"/>
    </encounter>
    

  </Observation>
  
  </resource>
  <request>
    <method value="PUT"/>
    <url value="Observation/ID377-bp"/>
  </request>
</entry>
<entry>
  <resource>
    
    
  <Observation>
  <id value="ID377-systolic"/>
    <text>
      <status value="generated"/>
      <div xmlns="http://www.w3.org/1999/xhtml">2001-11-28: Systolic blood pressure = 126 mm[Hg]</div>
    </text>
    <code>
      <coding>
        <system value="http://loinc.org"/>
        <code value="8480-6"/>
        <display value="Systolic blood pressure"/>
      </coding>
    </code>
    <valueQuantity>
      <value value="126.0"/>
      <unit value="mm[Hg]"/>
      <system value="http://unitsofmeasure.org" />
      <code value="mm[Hg]"/>
    </valueQuantity>
    
    <effectiveDateTime value="2001-11-28"/>
    <status value="final"/>
    <reliability value="ok"/>
    <subject>
      <reference value="Patient/ID1213208"/>
    </subject>
  </Observation>
  
  </resource>
  <request>
    <method value="PUT"/>
    <url value="Observation/ID377-systolic"/>
  </request>
</entry>
<entry>
  <resource>
    
    
  <Observation>
  <id value="ID377-diastolic"/>
    <text>
      <status value="generated"/>
      <div xmlns="http://www.w3.org/1999/xhtml">2001-11-28: Diastolic blood pressure = 80 mm[Hg]</div>
    </text>
    <code>
      <coding>
        <system value="http://loinc.org"/>
        <code value="8462-4"/>
        <display value="Diastolic blood pressure"/>
      </coding>
    </code>
    <valueQuantity>
      <value value="80.0"/>
      <unit value="mm[Hg]"/>
      <system value="http://unitsofmeasure.org" />
      <code value="mm[Hg]"/>
    </valueQuantity>
    
    <effectiveDateTime value="2001-11-28"/>
    <status value="final"/>
    <reliability value="ok"/>
    <subject>
      <reference value="Patient/ID1213208"/>
    </subject>
  </Observation>
  
  </resource>
  <request>
    <method value="PUT"/>
    <url value="Observation/ID377-diastolic"/>
  </request>
</entry>
  <entry>
  <resource>
    
    
  <Observation>
    <id value="ID378-bp"/>
    <text>
      <status value="generated"/>
      <div xmlns="http://www.w3.org/1999/xhtml">2001-11-29: Blood pressure 115/72 mmHg</div>
    </text>
    <code>
      <coding>
        <system value="http://loinc.org"/>
        <code value="55284-4"/>
        <display value="Blood pressure systolic and diastolic"/>
      </coding>
    </code>
    <effectiveDateTime value="2001-11-29"/>
    <status value="final"/>
    <reliability value="ok"/>
    <subject>
      <reference value="Patient/ID1213208"/>
    </subject>
    <related>
      <type value="has-component"/>
      <target>
        <reference value="Observation/ID378-systolic"/>
      </target>
    </related>
    <related>
      <type value="has-component"/>
      <target>
        <reference value="Observation/ID378-diastolic"/>
      </target>
    </related>
    <encounter>
      <reference value="Encounter/ID378"/>
    </encounter>
    

  </Observation>
  
  </resource>
  <request>
    <method value="PUT"/>
    <url value="Observation/ID378-bp"/>
  </request>
</entry>
<entry>
  <resource>
    
    
  <Observation>
  <id value="ID378-systolic"/>
    <text>
      <status value="generated"/>
      <div xmlns="http://www.w3.org/1999/xhtml">2001-11-29: Systolic blood pressure = 115 mm[Hg]</div>
    </text>
    <code>
      <coding>
        <system value="http://loinc.org"/>
        <code value="8480-6"/>
        <display value="Systolic blood pressure"/>
      </coding>
    </code>
    <valueQuantity>
      <value value="115.0"/>
      <unit value="mm[Hg]"/>
      <system value="http://unitsofmeasure.org" />
      <code value="mm[Hg]"/>
    </valueQuantity>
    
    <effectiveDateTime value="2001-11-29"/>
    <status value="final"/>
    <reliability value="ok"/>
    <subject>
      <reference value="Patient/ID1213208"/>
    </subject>
  </Observation>
  
  </resource>
  <request>
    <method value="PUT"/>
    <url value="Observation/ID378-systolic"/>
  </request>
</entry>
<entry>
  <resource>
    
    
  <Observation>
  <id value="ID378-diastolic"/>
    <text>
      <status value="generated"/>
      <div xmlns="http://www.w3.org/1999/xhtml">2001-11-29: Diastolic blood pressure = 72 mm[Hg]</div>
    </text>
    <code>
      <coding>
        <system value="http://loinc.org"/>
        <code value="8462-4"/>
        <display value="Diastolic blood pressure"/>
      </coding>
    </code>
    <valueQuantity>
      <value value="72.0"/>
      <unit value="mm[Hg]"/>
      <system value="http://unitsofmeasure.org" />
      <code value="mm[Hg]"/>
    </valueQuantity>
    
    <effectiveDateTime value="2001-11-29"/>
    <status value="final"/>
    <reliability value="ok"/>
    <subject>
      <reference value="Patient/ID1213208"/>
    </subject>
  </Observation>
  
  </resource>
  <request>
    <method value="PUT"/>
    <url value="Observation/ID378-diastolic"/>
  </request>
</entry>
  <entry>
  <resource>
    
    
  <Observation>
    <id value="ID379-bp"/>
    <text>
      <status value="generated"/>
      <div xmlns="http://www.w3.org/1999/xhtml">2003-06-05: Blood pressure 123/77 mmHg</div>
    </text>
    <code>
      <coding>
        <system value="http://loinc.org"/>
        <code value="55284-4"/>
        <display value="Blood pressure systolic and diastolic"/>
      </coding>
    </code>
    <effectiveDateTime value="2003-06-05"/>
    <status value="final"/>
    <reliability value="ok"/>
    <subject>
      <reference value="Patient/ID1213208"/>
    </subject>
    <related>
      <type value="has-component"/>
      <target>
        <reference value="Observation/ID379-systolic"/>
      </target>
    </related>
    <related>
      <type value="has-component"/>
      <target>
        <reference value="Observation/ID379-diastolic"/>
      </target>
    </related>
    <encounter>
      <reference value="Encounter/ID379-e"/>
    </encounter>
    

  </Observation>
  
  </resource>
  <request>
    <method value="PUT"/>
    <url value="Observation/ID379-bp"/>
  </request>
</entry>
<entry>
  <resource>
    
    
  <Observation>
  <id value="ID379-systolic"/>
    <text>
      <status value="generated"/>
      <div xmlns="http://www.w3.org/1999/xhtml">2003-06-05: Systolic blood pressure = 123 mm[Hg]</div>
    </text>
    <code>
      <coding>
        <system value="http://loinc.org"/>
        <code value="8480-6"/>
        <display value="Systolic blood pressure"/>
      </coding>
    </code>
    <valueQuantity>
      <value value="123.0"/>
      <unit value="mm[Hg]"/>
      <system value="http://unitsofmeasure.org" />
      <code value="mm[Hg]"/>
    </valueQuantity>
    
    <effectiveDateTime value="2003-06-05"/>
    <status value="final"/>
    <reliability value="ok"/>
    <subject>
      <reference value="Patient/ID1213208"/>
    </subject>
  </Observation>
  
  </resource>
  <request>
    <method value="PUT"/>
    <url value="Observation/ID379-systolic"/>
  </request>
</entry>
<entry>
  <resource>
    
    
  <Observation>
  <id value="ID379-diastolic"/>
    <text>
      <status value="generated"/>
      <div xmlns="http://www.w3.org/1999/xhtml">2003-06-05: Diastolic blood pressure = 77 mm[Hg]</div>
    </text>
    <code>
      <coding>
        <system value="http://loinc.org"/>
        <code value="8462-4"/>
        <display value="Diastolic blood pressure"/>
      </coding>
    </code>
    <valueQuantity>
      <value value="77.0"/>
      <unit value="mm[Hg]"/>
      <system value="http://unitsofmeasure.org" />
      <code value="mm[Hg]"/>
    </valueQuantity>
    
    <effectiveDateTime value="2003-06-05"/>
    <status value="final"/>
    <reliability value="ok"/>
    <subject>
      <reference value="Patient/ID1213208"/>
    </subject>
  </Observation>
  
  </resource>
  <request>
    <method value="PUT"/>
    <url value="Observation/ID379-diastolic"/>
  </request>
</entry>
  <entry>
  <resource>
    
    
  <Observation>
    <id value="ID380-bp"/>
    <text>
      <status value="generated"/>
      <div xmlns="http://www.w3.org/1999/xhtml">2003-06-06: Blood pressure 116/71 mmHg</div>
    </text>
    <code>
      <coding>
        <system value="http://loinc.org"/>
        <code value="55284-4"/>
        <display value="Blood pressure systolic and diastolic"/>
      </coding>
    </code>
    <effectiveDateTime value="2003-06-06"/>
    <status value="final"/>
    <reliability value="ok"/>
    <subject>
      <reference value="Patient/ID1213208"/>
    </subject>
    <related>
      <type value="has-component"/>
      <target>
        <reference value="Observation/ID380-systolic"/>
      </target>
    </related>
    <related>
      <type value="has-component"/>
      <target>
        <reference value="Observation/ID380-diastolic"/>
      </target>
    </related>
    <encounter>
      <reference value="Encounter/ID380-e"/>
    </encounter>
    

  </Observation>
  
  </resource>
  <request>
    <method value="PUT"/>
    <url value="Observation/ID380-bp"/>
  </request>
</entry>
<entry>
  <resource>
    
    
  <Observation>
  <id value="ID380-systolic"/>
    <text>
      <status value="generated"/>
      <div xmlns="http://www.w3.org/1999/xhtml">2003-06-06: Systolic blood pressure = 116 mm[Hg]</div>
    </text>
    <code>
      <coding>
        <system value="http://loinc.org"/>
        <code value="8480-6"/>
        <display value="Systolic blood pressure"/>
      </coding>
    </code>
    <valueQuantity>
      <value value="116.0"/>
      <unit value="mm[Hg]"/>
      <system value="http://unitsofmeasure.org" />
      <code value="mm[Hg]"/>
    </valueQuantity>
    
    <effectiveDateTime value="2003-06-06"/>
    <status value="final"/>
    <reliability value="ok"/>
    <subject>
      <reference value="Patient/ID1213208"/>
    </subject>
  </Observation>
  
  </resource>
  <request>
    <method value="PUT"/>
    <url value="Observation/ID380-systolic"/>
  </request>
</entry>
<entry>
  <resource>
    
    
  <Observation>
  <id value="ID380-diastolic"/>
    <text>
      <status value="generated"/>
      <div xmlns="http://www.w3.org/1999/xhtml">2003-06-06: Diastolic blood pressure = 71 mm[Hg]</div>
    </text>
    <code>
      <coding>
        <system value="http://loinc.org"/>
        <code value="8462-4"/>
        <display value="Diastolic blood pressure"/>
      </coding>
    </code>
    <valueQuantity>
      <value value="71.0"/>
      <unit value="mm[Hg]"/>
      <system value="http://unitsofmeasure.org" />
      <code value="mm[Hg]"/>
    </valueQuantity>
    
    <effectiveDateTime value="2003-06-06"/>
    <status value="final"/>
    <reliability value="ok"/>
    <subject>
      <reference value="Patient/ID1213208"/>
    </subject>
  </Observation>
  
  </resource>
  <request>
    <method value="PUT"/>
    <url value="Observation/ID380-diastolic"/>
  </request>
</entry>
  <entry>
  <resource>
    
    
  <Observation>
    <id value="ID381-bp"/>
    <text>
      <status value="generated"/>
      <div xmlns="http://www.w3.org/1999/xhtml">2003-06-09: Blood pressure 120/75 mmHg</div>
    </text>
    <code>
      <coding>
        <system value="http://loinc.org"/>
        <code value="55284-4"/>
        <display value="Blood pressure systolic and diastolic"/>
      </coding>
    </code>
    <effectiveDateTime value="2003-06-09"/>
    <status value="final"/>
    <reliability value="ok"/>
    <subject>
      <reference value="Patient/ID1213208"/>
    </subject>
    <related>
      <type value="has-component"/>
      <target>
        <reference value="Observation/ID381-systolic"/>
      </target>
    </related>
    <related>
      <type value="has-component"/>
      <target>
        <reference value="Observation/ID381-diastolic"/>
      </target>
    </related>
    <encounter>
      <reference value="Encounter/ID381-e"/>
    </encounter>
    

  </Observation>
  
  </resource>
  <request>
    <method value="PUT"/>
    <url value="Observation/ID381-bp"/>
  </request>
</entry>
<entry>
  <resource>
    
    
  <Observation>
  <id value="ID381-systolic"/>
    <text>
      <status value="generated"/>
      <div xmlns="http://www.w3.org/1999/xhtml">2003-06-09: Systolic blood pressure = 120 mm[Hg]</div>
    </text>
    <code>
      <coding>
        <system value="http://loinc.org"/>
        <code value="8480-6"/>
        <display value="Systolic blood pressure"/>
      </coding>
    </code>
    <valueQuantity>
      <value value="120.0"/>
      <unit value="mm[Hg]"/>
      <system value="http://unitsofmeasure.org" />
      <code value="mm[Hg]"/>
    </valueQuantity>
    
    <effectiveDateTime value="2003-06-09"/>
    <status value="final"/>
    <reliability value="ok"/>
    <subject>
      <reference value="Patient/ID1213208"/>
    </subject>
  </Observation>
  
  </resource>
  <request>
    <method value="PUT"/>
    <url value="Observation/ID381-systolic"/>
  </request>
</entry>
<entry>
  <resource>
    
    
  <Observation>
  <id value="ID381-diastolic"/>
    <text>
      <status value="generated"/>
      <div xmlns="http://www.w3.org/1999/xhtml">2003-06-09: Diastolic blood pressure = 75 mm[Hg]</div>
    </text>
    <code>
      <coding>
        <system value="http://loinc.org"/>
        <code value="8462-4"/>
        <display value="Diastolic blood pressure"/>
      </coding>
    </code>
    <valueQuantity>
      <value value="75.0"/>
      <unit value="mm[Hg]"/>
      <system value="http://unitsofmeasure.org" />
      <code value="mm[Hg]"/>
    </valueQuantity>
    
    <effectiveDateTime value="2003-06-09"/>
    <status value="final"/>
    <reliability value="ok"/>
    <subject>
      <reference value="Patient/ID1213208"/>
    </subject>
  </Observation>
  
  </resource>
  <request>
    <method value="PUT"/>
    <url value="Observation/ID381-diastolic"/>
  </request>
</entry>
  <entry>
  <resource>
    
    
  <Observation>
    <id value="ID382-bp"/>
    <text>
      <status value="generated"/>
      <div xmlns="http://www.w3.org/1999/xhtml">2003-07-03: Blood pressure 124/78 mmHg</div>
    </text>
    <code>
      <coding>
        <system value="http://loinc.org"/>
        <code value="55284-4"/>
        <display value="Blood pressure systolic and diastolic"/>
      </coding>
    </code>
    <effectiveDateTime value="2003-07-03"/>
    <status value="final"/>
    <reliability value="ok"/>
    <subject>
      <reference value="Patient/ID1213208"/>
    </subject>
    <related>
      <type value="has-component"/>
      <target>
        <reference value="Observation/ID382-systolic"/>
      </target>
    </related>
    <related>
      <type value="has-component"/>
      <target>
        <reference value="Observation/ID382-diastolic"/>
      </target>
    </related>
    <encounter>
      <reference value="Encounter/ID382-e"/>
    </encounter>
    

  </Observation>
  
  </resource>
  <request>
    <method value="PUT"/>
    <url value="Observation/ID382-bp"/>
  </request>
</entry>
<entry>
  <resource>
    
    
  <Observation>
  <id value="ID382-systolic"/>
    <text>
      <status value="generated"/>
      <div xmlns="http://www.w3.org/1999/xhtml">2003-07-03: Systolic blood pressure = 124 mm[Hg]</div>
    </text>
    <code>
      <coding>
        <system value="http://loinc.org"/>
        <code value="8480-6"/>
        <display value="Systolic blood pressure"/>
      </coding>
    </code>
    <valueQuantity>
      <value value="124.0"/>
      <unit value="mm[Hg]"/>
      <system value="http://unitsofmeasure.org" />
      <code value="mm[Hg]"/>
    </valueQuantity>
    
    <effectiveDateTime value="2003-07-03"/>
    <status value="final"/>
    <reliability value="ok"/>
    <subject>
      <reference value="Patient/ID1213208"/>
    </subject>
  </Observation>
  
  </resource>
  <request>
    <method value="PUT"/>
    <url value="Observation/ID382-systolic"/>
  </request>
</entry>
<entry>
  <resource>
    
    
  <Observation>
  <id value="ID382-diastolic"/>
    <text>
      <status value="generated"/>
      <div xmlns="http://www.w3.org/1999/xhtml">2003-07-03: Diastolic blood pressure = 78 mm[Hg]</div>
    </text>
    <code>
      <coding>
        <system value="http://loinc.org"/>
        <code value="8462-4"/>
        <display value="Diastolic blood pressure"/>
      </coding>
    </code>
    <valueQuantity>
      <value value="78.0"/>
      <unit value="mm[Hg]"/>
      <system value="http://unitsofmeasure.org" />
      <code value="mm[Hg]"/>
    </valueQuantity>
    
    <effectiveDateTime value="2003-07-03"/>
    <status value="final"/>
    <reliability value="ok"/>
    <subject>
      <reference value="Patient/ID1213208"/>
    </subject>
  </Observation>
  
  </resource>
  <request>
    <method value="PUT"/>
    <url value="Observation/ID382-diastolic"/>
  </request>
</entry>
  <entry>
  <resource>
    
    
  <Observation>
    <id value="ID383-bp"/>
    <text>
      <status value="generated"/>
      <div xmlns="http://www.w3.org/1999/xhtml">2003-07-23: Blood pressure 115/70 mmHg</div>
    </text>
    <code>
      <coding>
        <system value="http://loinc.org"/>
        <code value="55284-4"/>
        <display value="Blood pressure systolic and diastolic"/>
      </coding>
    </code>
    <effectiveDateTime value="2003-07-23"/>
    <status value="final"/>
    <reliability value="ok"/>
    <subject>
      <reference value="Patient/ID1213208"/>
    </subject>
    <related>
      <type value="has-component"/>
      <target>
        <reference value="Observation/ID383-systolic"/>
      </target>
    </related>
    <related>
      <type value="has-component"/>
      <target>
        <reference value="Observation/ID383-diastolic"/>
      </target>
    </related>
    <encounter>
      <reference value="Encounter/ID383-e"/>
    </encounter>
    

  </Observation>
  
  </resource>
  <request>
    <method value="PUT"/>
    <url value="Observation/ID383-bp"/>
  </request>
</entry>
<entry>
  <resource>
    
    
  <Observation>
  <id value="ID383-systolic"/>
    <text>
      <status value="generated"/>
      <div xmlns="http://www.w3.org/1999/xhtml">2003-07-23: Systolic blood pressure = 115 mm[Hg]</div>
    </text>
    <code>
      <coding>
        <system value="http://loinc.org"/>
        <code value="8480-6"/>
        <display value="Systolic blood pressure"/>
      </coding>
    </code>
    <valueQuantity>
      <value value="115.0"/>
      <unit value="mm[Hg]"/>
      <system value="http://unitsofmeasure.org" />
      <code value="mm[Hg]"/>
    </valueQuantity>
    
    <effectiveDateTime value="2003-07-23"/>
    <status value="final"/>
    <reliability value="ok"/>
    <subject>
      <reference value="Patient/ID1213208"/>
    </subject>
  </Observation>
  
  </resource>
  <request>
    <method value="PUT"/>
    <url value="Observation/ID383-systolic"/>
  </request>
</entry>
<entry>
  <resource>
    
    
  <Observation>
  <id value="ID383-diastolic"/>
    <text>
      <status value="generated"/>
      <div xmlns="http://www.w3.org/1999/xhtml">2003-07-23: Diastolic blood pressure = 70 mm[Hg]</div>
    </text>
    <code>
      <coding>
        <system value="http://loinc.org"/>
        <code value="8462-4"/>
        <display value="Diastolic blood pressure"/>
      </coding>
    </code>
    <valueQuantity>
      <value value="70.0"/>
      <unit value="mm[Hg]"/>
      <system value="http://unitsofmeasure.org" />
      <code value="mm[Hg]"/>
    </valueQuantity>
    
    <effectiveDateTime value="2003-07-23"/>
    <status value="final"/>
    <reliability value="ok"/>
    <subject>
      <reference value="Patient/ID1213208"/>
    </subject>
  </Observation>
  
  </resource>
  <request>
    <method value="PUT"/>
    <url value="Observation/ID383-diastolic"/>
  </request>
</entry>
  <entry>
  <resource>
    
    
  <Observation>
    <id value="ID384-bp"/>
    <text>
      <status value="generated"/>
      <div xmlns="http://www.w3.org/1999/xhtml">2003-07-24: Blood pressure 113/69 mmHg</div>
    </text>
    <code>
      <coding>
        <system value="http://loinc.org"/>
        <code value="55284-4"/>
        <display value="Blood pressure systolic and diastolic"/>
      </coding>
    </code>
    <effectiveDateTime value="2003-07-24"/>
    <status value="final"/>
    <reliability value="ok"/>
    <subject>
      <reference value="Patient/ID1213208"/>
    </subject>
    <related>
      <type value="has-component"/>
      <target>
        <reference value="Observation/ID384-systolic"/>
      </target>
    </related>
    <related>
      <type value="has-component"/>
      <target>
        <reference value="Observation/ID384-diastolic"/>
      </target>
    </related>
    <encounter>
      <reference value="Encounter/ID384-e"/>
    </encounter>
    

  </Observation>
  
  </resource>
  <request>
    <method value="PUT"/>
    <url value="Observation/ID384-bp"/>
  </request>
</entry>
<entry>
  <resource>
    
    
  <Observation>
  <id value="ID384-systolic"/>
    <text>
      <status value="generated"/>
      <div xmlns="http://www.w3.org/1999/xhtml">2003-07-24: Systolic blood pressure = 113 mm[Hg]</div>
    </text>
    <code>
      <coding>
        <system value="http://loinc.org"/>
        <code value="8480-6"/>
        <display value="Systolic blood pressure"/>
      </coding>
    </code>
    <valueQuantity>
      <value value="113.0"/>
      <unit value="mm[Hg]"/>
      <system value="http://unitsofmeasure.org" />
      <code value="mm[Hg]"/>
    </valueQuantity>
    
    <effectiveDateTime value="2003-07-24"/>
    <status value="final"/>
    <reliability value="ok"/>
    <subject>
      <reference value="Patient/ID1213208"/>
    </subject>
  </Observation>
  
  </resource>
  <request>
    <method value="PUT"/>
    <url value="Observation/ID384-systolic"/>
  </request>
</entry>
<entry>
  <resource>
    
    
  <Observation>
  <id value="ID384-diastolic"/>
    <text>
      <status value="generated"/>
      <div xmlns="http://www.w3.org/1999/xhtml">2003-07-24: Diastolic blood pressure = 69 mm[Hg]</div>
    </text>
    <code>
      <coding>
        <system value="http://loinc.org"/>
        <code value="8462-4"/>
        <display value="Diastolic blood pressure"/>
      </coding>
    </code>
    <valueQuantity>
      <value value="69.0"/>
      <unit value="mm[Hg]"/>
      <system value="http://unitsofmeasure.org" />
      <code value="mm[Hg]"/>
    </valueQuantity>
    
    <effectiveDateTime value="2003-07-24"/>
    <status value="final"/>
    <reliability value="ok"/>
    <subject>
      <reference value="Patient/ID1213208"/>
    </subject>
  </Observation>
  
  </resource>
  <request>
    <method value="PUT"/>
    <url value="Observation/ID384-diastolic"/>
  </request>
</entry>
  <entry>
  <resource>
    
    
  <Observation>
    <id value="ID385-bp"/>
    <text>
      <status value="generated"/>
      <div xmlns="http://www.w3.org/1999/xhtml">2003-08-11: Blood pressure 117/72 mmHg</div>
    </text>
    <code>
      <coding>
        <system value="http://loinc.org"/>
        <code value="55284-4"/>
        <display value="Blood pressure systolic and diastolic"/>
      </coding>
    </code>
    <effectiveDateTime value="2003-08-11"/>
    <status value="final"/>
    <reliability value="ok"/>
    <subject>
      <reference value="Patient/ID1213208"/>
    </subject>
    <related>
      <type value="has-component"/>
      <target>
        <reference value="Observation/ID385-systolic"/>
      </target>
    </related>
    <related>
      <type value="has-component"/>
      <target>
        <reference value="Observation/ID385-diastolic"/>
      </target>
    </related>
    <encounter>
      <reference value="Encounter/ID385-e"/>
    </encounter>
    

  </Observation>
  
  </resource>
  <request>
    <method value="PUT"/>
    <url value="Observation/ID385-bp"/>
  </request>
</entry>
<entry>
  <resource>
    
    
  <Observation>
  <id value="ID385-systolic"/>
    <text>
      <status value="generated"/>
      <div xmlns="http://www.w3.org/1999/xhtml">2003-08-11: Systolic blood pressure = 117 mm[Hg]</div>
    </text>
    <code>
      <coding>
        <system value="http://loinc.org"/>
        <code value="8480-6"/>
        <display value="Systolic blood pressure"/>
      </coding>
    </code>
    <valueQuantity>
      <value value="117.0"/>
      <unit value="mm[Hg]"/>
      <system value="http://unitsofmeasure.org" />
      <code value="mm[Hg]"/>
    </valueQuantity>
    
    <effectiveDateTime value="2003-08-11"/>
    <status value="final"/>
    <reliability value="ok"/>
    <subject>
      <reference value="Patient/ID1213208"/>
    </subject>
  </Observation>
  
  </resource>
  <request>
    <method value="PUT"/>
    <url value="Observation/ID385-systolic"/>
  </request>
</entry>
<entry>
  <resource>
    
    
  <Observation>
  <id value="ID385-diastolic"/>
    <text>
      <status value="generated"/>
      <div xmlns="http://www.w3.org/1999/xhtml">2003-08-11: Diastolic blood pressure = 72 mm[Hg]</div>
    </text>
    <code>
      <coding>
        <system value="http://loinc.org"/>
        <code value="8462-4"/>
        <display value="Diastolic blood pressure"/>
      </coding>
    </code>
    <valueQuantity>
      <value value="72.0"/>
      <unit value="mm[Hg]"/>
      <system value="http://unitsofmeasure.org" />
      <code value="mm[Hg]"/>
    </valueQuantity>
    
    <effectiveDateTime value="2003-08-11"/>
    <status value="final"/>
    <reliability value="ok"/>
    <subject>
      <reference value="Patient/ID1213208"/>
    </subject>
  </Observation>
  
  </resource>
  <request>
    <method value="PUT"/>
    <url value="Observation/ID385-diastolic"/>
  </request>
</entry>
  <entry>
  <resource>
    
    
  <Observation>
    <id value="ID386-bp"/>
    <text>
      <status value="generated"/>
      <div xmlns="http://www.w3.org/1999/xhtml">2003-08-12: Blood pressure 125/78 mmHg</div>
    </text>
    <code>
      <coding>
        <system value="http://loinc.org"/>
        <code value="55284-4"/>
        <display value="Blood pressure systolic and diastolic"/>
      </coding>
    </code>
    <effectiveDateTime value="2003-08-12"/>
    <status value="final"/>
    <reliability value="ok"/>
    <subject>
      <reference value="Patient/ID1213208"/>
    </subject>
    <related>
      <type value="has-component"/>
      <target>
        <reference value="Observation/ID386-systolic"/>
      </target>
    </related>
    <related>
      <type value="has-component"/>
      <target>
        <reference value="Observation/ID386-diastolic"/>
      </target>
    </related>
    <encounter>
      <reference value="Encounter/ID386-e"/>
    </encounter>
    

  </Observation>
  
  </resource>
  <request>
    <method value="PUT"/>
    <url value="Observation/ID386-bp"/>
  </request>
</entry>
<entry>
  <resource>
    
    
  <Observation>
  <id value="ID386-systolic"/>
    <text>
      <status value="generated"/>
      <div xmlns="http://www.w3.org/1999/xhtml">2003-08-12: Systolic blood pressure = 125 mm[Hg]</div>
    </text>
    <code>
      <coding>
        <system value="http://loinc.org"/>
        <code value="8480-6"/>
        <display value="Systolic blood pressure"/>
      </coding>
    </code>
    <valueQuantity>
      <value value="125.0"/>
      <unit value="mm[Hg]"/>
      <system value="http://unitsofmeasure.org" />
      <code value="mm[Hg]"/>
    </valueQuantity>
    
    <effectiveDateTime value="2003-08-12"/>
    <status value="final"/>
    <reliability value="ok"/>
    <subject>
      <reference value="Patient/ID1213208"/>
    </subject>
  </Observation>
  
  </resource>
  <request>
    <method value="PUT"/>
    <url value="Observation/ID386-systolic"/>
  </request>
</entry>
<entry>
  <resource>
    
    
  <Observation>
  <id value="ID386-diastolic"/>
    <text>
      <status value="generated"/>
      <div xmlns="http://www.w3.org/1999/xhtml">2003-08-12: Diastolic blood pressure = 78 mm[Hg]</div>
    </text>
    <code>
      <coding>
        <system value="http://loinc.org"/>
        <code value="8462-4"/>
        <display value="Diastolic blood pressure"/>
      </coding>
    </code>
    <valueQuantity>
      <value value="78.0"/>
      <unit value="mm[Hg]"/>
      <system value="http://unitsofmeasure.org" />
      <code value="mm[Hg]"/>
    </valueQuantity>
    
    <effectiveDateTime value="2003-08-12"/>
    <status value="final"/>
    <reliability value="ok"/>
    <subject>
      <reference value="Patient/ID1213208"/>
    </subject>
  </Observation>
  
  </resource>
  <request>
    <method value="PUT"/>
    <url value="Observation/ID386-diastolic"/>
  </request>
</entry>
  <entry>
  <resource>
    
    
  <Observation>
    <id value="ID387-bp"/>
    <text>
      <status value="generated"/>
      <div xmlns="http://www.w3.org/1999/xhtml">2003-09-03: Blood pressure 125/78 mmHg</div>
    </text>
    <code>
      <coding>
        <system value="http://loinc.org"/>
        <code value="55284-4"/>
        <display value="Blood pressure systolic and diastolic"/>
      </coding>
    </code>
    <effectiveDateTime value="2003-09-03"/>
    <status value="final"/>
    <reliability value="ok"/>
    <subject>
      <reference value="Patient/ID1213208"/>
    </subject>
    <related>
      <type value="has-component"/>
      <target>
        <reference value="Observation/ID387-systolic"/>
      </target>
    </related>
    <related>
      <type value="has-component"/>
      <target>
        <reference value="Observation/ID387-diastolic"/>
      </target>
    </related>
    <encounter>
      <reference value="Encounter/ID387-e"/>
    </encounter>
    

  </Observation>
  
  </resource>
  <request>
    <method value="PUT"/>
    <url value="Observation/ID387-bp"/>
  </request>
</entry>
<entry>
  <resource>
    
    
  <Observation>
  <id value="ID387-systolic"/>
    <text>
      <status value="generated"/>
      <div xmlns="http://www.w3.org/1999/xhtml">2003-09-03: Systolic blood pressure = 125 mm[Hg]</div>
    </text>
    <code>
      <coding>
        <system value="http://loinc.org"/>
        <code value="8480-6"/>
        <display value="Systolic blood pressure"/>
      </coding>
    </code>
    <valueQuantity>
      <value value="125.0"/>
      <unit value="mm[Hg]"/>
      <system value="http://unitsofmeasure.org" />
      <code value="mm[Hg]"/>
    </valueQuantity>
    
    <effectiveDateTime value="2003-09-03"/>
    <status value="final"/>
    <reliability value="ok"/>
    <subject>
      <reference value="Patient/ID1213208"/>
    </subject>
  </Observation>
  
  </resource>
  <request>
    <method value="PUT"/>
    <url value="Observation/ID387-systolic"/>
  </request>
</entry>
<entry>
  <resource>
    
    
  <Observation>
  <id value="ID387-diastolic"/>
    <text>
      <status value="generated"/>
      <div xmlns="http://www.w3.org/1999/xhtml">2003-09-03: Diastolic blood pressure = 78 mm[Hg]</div>
    </text>
    <code>
      <coding>
        <system value="http://loinc.org"/>
        <code value="8462-4"/>
        <display value="Diastolic blood pressure"/>
      </coding>
    </code>
    <valueQuantity>
      <value value="78.0"/>
      <unit value="mm[Hg]"/>
      <system value="http://unitsofmeasure.org" />
      <code value="mm[Hg]"/>
    </valueQuantity>
    
    <effectiveDateTime value="2003-09-03"/>
    <status value="final"/>
    <reliability value="ok"/>
    <subject>
      <reference value="Patient/ID1213208"/>
    </subject>
  </Observation>
  
  </resource>
  <request>
    <method value="PUT"/>
    <url value="Observation/ID387-diastolic"/>
  </request>
</entry>
  <entry>
  <resource>
    
    
  <Observation>
    <id value="ID388-bp"/>
    <text>
      <status value="generated"/>
      <div xmlns="http://www.w3.org/1999/xhtml">2003-09-04: Blood pressure 128/81 mmHg</div>
    </text>
    <code>
      <coding>
        <system value="http://loinc.org"/>
        <code value="55284-4"/>
        <display value="Blood pressure systolic and diastolic"/>
      </coding>
    </code>
    <effectiveDateTime value="2003-09-04"/>
    <status value="final"/>
    <reliability value="ok"/>
    <subject>
      <reference value="Patient/ID1213208"/>
    </subject>
    <related>
      <type value="has-component"/>
      <target>
        <reference value="Observation/ID388-systolic"/>
      </target>
    </related>
    <related>
      <type value="has-component"/>
      <target>
        <reference value="Observation/ID388-diastolic"/>
      </target>
    </related>
    <encounter>
      <reference value="Encounter/ID388-e"/>
    </encounter>
    

  </Observation>
  
  </resource>
  <request>
    <method value="PUT"/>
    <url value="Observation/ID388-bp"/>
  </request>
</entry>
<entry>
  <resource>
    
    
  <Observation>
  <id value="ID388-systolic"/>
    <text>
      <status value="generated"/>
      <div xmlns="http://www.w3.org/1999/xhtml">2003-09-04: Systolic blood pressure = 128 mm[Hg]</div>
    </text>
    <code>
      <coding>
        <system value="http://loinc.org"/>
        <code value="8480-6"/>
        <display value="Systolic blood pressure"/>
      </coding>
    </code>
    <valueQuantity>
      <value value="128.0"/>
      <unit value="mm[Hg]"/>
      <system value="http://unitsofmeasure.org" />
      <code value="mm[Hg]"/>
    </valueQuantity>
    
    <effectiveDateTime value="2003-09-04"/>
    <status value="final"/>
    <reliability value="ok"/>
    <subject>
      <reference value="Patient/ID1213208"/>
    </subject>
  </Observation>
  
  </resource>
  <request>
    <method value="PUT"/>
    <url value="Observation/ID388-systolic"/>
  </request>
</entry>
<entry>
  <resource>
    
    
  <Observation>
  <id value="ID388-diastolic"/>
    <text>
      <status value="generated"/>
      <div xmlns="http://www.w3.org/1999/xhtml">2003-09-04: Diastolic blood pressure = 81 mm[Hg]</div>
    </text>
    <code>
      <coding>
        <system value="http://loinc.org"/>
        <code value="8462-4"/>
        <display value="Diastolic blood pressure"/>
      </coding>
    </code>
    <valueQuantity>
      <value value="81.0"/>
      <unit value="mm[Hg]"/>
      <system value="http://unitsofmeasure.org" />
      <code value="mm[Hg]"/>
    </valueQuantity>
    
    <effectiveDateTime value="2003-09-04"/>
    <status value="final"/>
    <reliability value="ok"/>
    <subject>
      <reference value="Patient/ID1213208"/>
    </subject>
  </Observation>
  
  </resource>
  <request>
    <method value="PUT"/>
    <url value="Observation/ID388-diastolic"/>
  </request>
</entry>
  <entry>
  <resource>
    
    
  <Observation>
    <id value="ID389-bp"/>
    <text>
      <status value="generated"/>
      <div xmlns="http://www.w3.org/1999/xhtml">2003-09-05: Blood pressure 114/70 mmHg</div>
    </text>
    <code>
      <coding>
        <system value="http://loinc.org"/>
        <code value="55284-4"/>
        <display value="Blood pressure systolic and diastolic"/>
      </coding>
    </code>
    <effectiveDateTime value="2003-09-05"/>
    <status value="final"/>
    <reliability value="ok"/>
    <subject>
      <reference value="Patient/ID1213208"/>
    </subject>
    <related>
      <type value="has-component"/>
      <target>
        <reference value="Observation/ID389-systolic"/>
      </target>
    </related>
    <related>
      <type value="has-component"/>
      <target>
        <reference value="Observation/ID389-diastolic"/>
      </target>
    </related>
    <encounter>
      <reference value="Encounter/ID389-e"/>
    </encounter>
    

  </Observation>
  
  </resource>
  <request>
    <method value="PUT"/>
    <url value="Observation/ID389-bp"/>
  </request>
</entry>
<entry>
  <resource>
    
    
  <Observation>
  <id value="ID389-systolic"/>
    <text>
      <status value="generated"/>
      <div xmlns="http://www.w3.org/1999/xhtml">2003-09-05: Systolic blood pressure = 114 mm[Hg]</div>
    </text>
    <code>
      <coding>
        <system value="http://loinc.org"/>
        <code value="8480-6"/>
        <display value="Systolic blood pressure"/>
      </coding>
    </code>
    <valueQuantity>
      <value value="114.0"/>
      <unit value="mm[Hg]"/>
      <system value="http://unitsofmeasure.org" />
      <code value="mm[Hg]"/>
    </valueQuantity>
    
    <effectiveDateTime value="2003-09-05"/>
    <status value="final"/>
    <reliability value="ok"/>
    <subject>
      <reference value="Patient/ID1213208"/>
    </subject>
  </Observation>
  
  </resource>
  <request>
    <method value="PUT"/>
    <url value="Observation/ID389-systolic"/>
  </request>
</entry>
<entry>
  <resource>
    
    
  <Observation>
  <id value="ID389-diastolic"/>
    <text>
      <status value="generated"/>
      <div xmlns="http://www.w3.org/1999/xhtml">2003-09-05: Diastolic blood pressure = 70 mm[Hg]</div>
    </text>
    <code>
      <coding>
        <system value="http://loinc.org"/>
        <code value="8462-4"/>
        <display value="Diastolic blood pressure"/>
      </coding>
    </code>
    <valueQuantity>
      <value value="70.0"/>
      <unit value="mm[Hg]"/>
      <system value="http://unitsofmeasure.org" />
      <code value="mm[Hg]"/>
    </valueQuantity>
    
    <effectiveDateTime value="2003-09-05"/>
    <status value="final"/>
    <reliability value="ok"/>
    <subject>
      <reference value="Patient/ID1213208"/>
    </subject>
  </Observation>
  
  </resource>
  <request>
    <method value="PUT"/>
    <url value="Observation/ID389-diastolic"/>
  </request>
</entry>
  <entry>
  <resource>
    
    
  <Observation>
    <id value="ID390-bp"/>
    <text>
      <status value="generated"/>
      <div xmlns="http://www.w3.org/1999/xhtml">2006-12-08: Blood pressure 117/73 mmHg</div>
    </text>
    <code>
      <coding>
        <system value="http://loinc.org"/>
        <code value="55284-4"/>
        <display value="Blood pressure systolic and diastolic"/>
      </coding>
    </code>
    <effectiveDateTime value="2006-12-08"/>
    <status value="final"/>
    <reliability value="ok"/>
    <subject>
      <reference value="Patient/ID1213208"/>
    </subject>
    <related>
      <type value="has-component"/>
      <target>
        <reference value="Observation/ID390-systolic"/>
      </target>
    </related>
    <related>
      <type value="has-component"/>
      <target>
        <reference value="Observation/ID390-diastolic"/>
      </target>
    </related>
    <encounter>
      <reference value="Encounter/ID390"/>
    </encounter>
    

  </Observation>
  
  </resource>
  <request>
    <method value="PUT"/>
    <url value="Observation/ID390-bp"/>
  </request>
</entry>
<entry>
  <resource>
    
    
  <Observation>
  <id value="ID390-systolic"/>
    <text>
      <status value="generated"/>
      <div xmlns="http://www.w3.org/1999/xhtml">2006-12-08: Systolic blood pressure = 117 mm[Hg]</div>
    </text>
    <code>
      <coding>
        <system value="http://loinc.org"/>
        <code value="8480-6"/>
        <display value="Systolic blood pressure"/>
      </coding>
    </code>
    <valueQuantity>
      <value value="117.0"/>
      <unit value="mm[Hg]"/>
      <system value="http://unitsofmeasure.org" />
      <code value="mm[Hg]"/>
    </valueQuantity>
    
    <effectiveDateTime value="2006-12-08"/>
    <status value="final"/>
    <reliability value="ok"/>
    <subject>
      <reference value="Patient/ID1213208"/>
    </subject>
  </Observation>
  
  </resource>
  <request>
    <method value="PUT"/>
    <url value="Observation/ID390-systolic"/>
  </request>
</entry>
<entry>
  <resource>
    
    
  <Observation>
  <id value="ID390-diastolic"/>
    <text>
      <status value="generated"/>
      <div xmlns="http://www.w3.org/1999/xhtml">2006-12-08: Diastolic blood pressure = 73 mm[Hg]</div>
    </text>
    <code>
      <coding>
        <system value="http://loinc.org"/>
        <code value="8462-4"/>
        <display value="Diastolic blood pressure"/>
      </coding>
    </code>
    <valueQuantity>
      <value value="73.0"/>
      <unit value="mm[Hg]"/>
      <system value="http://unitsofmeasure.org" />
      <code value="mm[Hg]"/>
    </valueQuantity>
    
    <effectiveDateTime value="2006-12-08"/>
    <status value="final"/>
    <reliability value="ok"/>
    <subject>
      <reference value="Patient/ID1213208"/>
    </subject>
  </Observation>
  
  </resource>
  <request>
    <method value="PUT"/>
    <url value="Observation/ID390-diastolic"/>
  </request>
</entry>
  <entry>
  <resource>
    
    
  <Observation>
    <id value="ID391-bp"/>
    <text>
      <status value="generated"/>
      <div xmlns="http://www.w3.org/1999/xhtml">2006-12-11: Blood pressure 121/76 mmHg</div>
    </text>
    <code>
      <coding>
        <system value="http://loinc.org"/>
        <code value="55284-4"/>
        <display value="Blood pressure systolic and diastolic"/>
      </coding>
    </code>
    <effectiveDateTime value="2006-12-11"/>
    <status value="final"/>
    <reliability value="ok"/>
    <subject>
      <reference value="Patient/ID1213208"/>
    </subject>
    <related>
      <type value="has-component"/>
      <target>
        <reference value="Observation/ID391-systolic"/>
      </target>
    </related>
    <related>
      <type value="has-component"/>
      <target>
        <reference value="Observation/ID391-diastolic"/>
      </target>
    </related>
    <encounter>
      <reference value="Encounter/ID391"/>
    </encounter>
    

  </Observation>
  
  </resource>
  <request>
    <method value="PUT"/>
    <url value="Observation/ID391-bp"/>
  </request>
</entry>
<entry>
  <resource>
    
    
  <Observation>
  <id value="ID391-systolic"/>
    <text>
      <status value="generated"/>
      <div xmlns="http://www.w3.org/1999/xhtml">2006-12-11: Systolic blood pressure = 121 mm[Hg]</div>
    </text>
    <code>
      <coding>
        <system value="http://loinc.org"/>
        <code value="8480-6"/>
        <display value="Systolic blood pressure"/>
      </coding>
    </code>
    <valueQuantity>
      <value value="121.0"/>
      <unit value="mm[Hg]"/>
      <system value="http://unitsofmeasure.org" />
      <code value="mm[Hg]"/>
    </valueQuantity>
    
    <effectiveDateTime value="2006-12-11"/>
    <status value="final"/>
    <reliability value="ok"/>
    <subject>
      <reference value="Patient/ID1213208"/>
    </subject>
  </Observation>
  
  </resource>
  <request>
    <method value="PUT"/>
    <url value="Observation/ID391-systolic"/>
  </request>
</entry>
<entry>
  <resource>
    
    
  <Observation>
  <id value="ID391-diastolic"/>
    <text>
      <status value="generated"/>
      <div xmlns="http://www.w3.org/1999/xhtml">2006-12-11: Diastolic blood pressure = 76 mm[Hg]</div>
    </text>
    <code>
      <coding>
        <system value="http://loinc.org"/>
        <code value="8462-4"/>
        <display value="Diastolic blood pressure"/>
      </coding>
    </code>
    <valueQuantity>
      <value value="76.0"/>
      <unit value="mm[Hg]"/>
      <system value="http://unitsofmeasure.org" />
      <code value="mm[Hg]"/>
    </valueQuantity>
    
    <effectiveDateTime value="2006-12-11"/>
    <status value="final"/>
    <reliability value="ok"/>
    <subject>
      <reference value="Patient/ID1213208"/>
    </subject>
  </Observation>
  
  </resource>
  <request>
    <method value="PUT"/>
    <url value="Observation/ID391-diastolic"/>
  </request>
</entry>
  <entry>
  <resource>
    
    
  <Observation>
    <id value="ID392-bp"/>
    <text>
      <status value="generated"/>
      <div xmlns="http://www.w3.org/1999/xhtml">2006-12-14: Blood pressure 122/77 mmHg</div>
    </text>
    <code>
      <coding>
        <system value="http://loinc.org"/>
        <code value="55284-4"/>
        <display value="Blood pressure systolic and diastolic"/>
      </coding>
    </code>
    <effectiveDateTime value="2006-12-14"/>
    <status value="final"/>
    <reliability value="ok"/>
    <subject>
      <reference value="Patient/ID1213208"/>
    </subject>
    <related>
      <type value="has-component"/>
      <target>
        <reference value="Observation/ID392-systolic"/>
      </target>
    </related>
    <related>
      <type value="has-component"/>
      <target>
        <reference value="Observation/ID392-diastolic"/>
      </target>
    </related>
    <encounter>
      <reference value="Encounter/ID392"/>
    </encounter>
    

  </Observation>
  
  </resource>
  <request>
    <method value="PUT"/>
    <url value="Observation/ID392-bp"/>
  </request>
</entry>
<entry>
  <resource>
    
    
  <Observation>
  <id value="ID392-systolic"/>
    <text>
      <status value="generated"/>
      <div xmlns="http://www.w3.org/1999/xhtml">2006-12-14: Systolic blood pressure = 122 mm[Hg]</div>
    </text>
    <code>
      <coding>
        <system value="http://loinc.org"/>
        <code value="8480-6"/>
        <display value="Systolic blood pressure"/>
      </coding>
    </code>
    <valueQuantity>
      <value value="122.0"/>
      <unit value="mm[Hg]"/>
      <system value="http://unitsofmeasure.org" />
      <code value="mm[Hg]"/>
    </valueQuantity>
    
    <effectiveDateTime value="2006-12-14"/>
    <status value="final"/>
    <reliability value="ok"/>
    <subject>
      <reference value="Patient/ID1213208"/>
    </subject>
  </Observation>
  
  </resource>
  <request>
    <method value="PUT"/>
    <url value="Observation/ID392-systolic"/>
  </request>
</entry>
<entry>
  <resource>
    
    
  <Observation>
  <id value="ID392-diastolic"/>
    <text>
      <status value="generated"/>
      <div xmlns="http://www.w3.org/1999/xhtml">2006-12-14: Diastolic blood pressure = 77 mm[Hg]</div>
    </text>
    <code>
      <coding>
        <system value="http://loinc.org"/>
        <code value="8462-4"/>
        <display value="Diastolic blood pressure"/>
      </coding>
    </code>
    <valueQuantity>
      <value value="77.0"/>
      <unit value="mm[Hg]"/>
      <system value="http://unitsofmeasure.org" />
      <code value="mm[Hg]"/>
    </valueQuantity>
    
    <effectiveDateTime value="2006-12-14"/>
    <status value="final"/>
    <reliability value="ok"/>
    <subject>
      <reference value="Patient/ID1213208"/>
    </subject>
  </Observation>
  
  </resource>
  <request>
    <method value="PUT"/>
    <url value="Observation/ID392-diastolic"/>
  </request>
</entry>
  <entry>
  <resource>
    
    
  <Observation>
    <id value="ID393-bp"/>
    <text>
      <status value="generated"/>
      <div xmlns="http://www.w3.org/1999/xhtml">2006-12-15: Blood pressure 122/77 mmHg</div>
    </text>
    <code>
      <coding>
        <system value="http://loinc.org"/>
        <code value="55284-4"/>
        <display value="Blood pressure systolic and diastolic"/>
      </coding>
    </code>
    <effectiveDateTime value="2006-12-15"/>
    <status value="final"/>
    <reliability value="ok"/>
    <subject>
      <reference value="Patient/ID1213208"/>
    </subject>
    <related>
      <type value="has-component"/>
      <target>
        <reference value="Observation/ID393-systolic"/>
      </target>
    </related>
    <related>
      <type value="has-component"/>
      <target>
        <reference value="Observation/ID393-diastolic"/>
      </target>
    </related>
    <encounter>
      <reference value="Encounter/ID393"/>
    </encounter>
    

  </Observation>
  
  </resource>
  <request>
    <method value="PUT"/>
    <url value="Observation/ID393-bp"/>
  </request>
</entry>
<entry>
  <resource>
    
    
  <Observation>
  <id value="ID393-systolic"/>
    <text>
      <status value="generated"/>
      <div xmlns="http://www.w3.org/1999/xhtml">2006-12-15: Systolic blood pressure = 122 mm[Hg]</div>
    </text>
    <code>
      <coding>
        <system value="http://loinc.org"/>
        <code value="8480-6"/>
        <display value="Systolic blood pressure"/>
      </coding>
    </code>
    <valueQuantity>
      <value value="122.0"/>
      <unit value="mm[Hg]"/>
      <system value="http://unitsofmeasure.org" />
      <code value="mm[Hg]"/>
    </valueQuantity>
    
    <effectiveDateTime value="2006-12-15"/>
    <status value="final"/>
    <reliability value="ok"/>
    <subject>
      <reference value="Patient/ID1213208"/>
    </subject>
  </Observation>
  
  </resource>
  <request>
    <method value="PUT"/>
    <url value="Observation/ID393-systolic"/>
  </request>
</entry>
<entry>
  <resource>
    
    
  <Observation>
  <id value="ID393-diastolic"/>
    <text>
      <status value="generated"/>
      <div xmlns="http://www.w3.org/1999/xhtml">2006-12-15: Diastolic blood pressure = 77 mm[Hg]</div>
    </text>
    <code>
      <coding>
        <system value="http://loinc.org"/>
        <code value="8462-4"/>
        <display value="Diastolic blood pressure"/>
      </coding>
    </code>
    <valueQuantity>
      <value value="77.0"/>
      <unit value="mm[Hg]"/>
      <system value="http://unitsofmeasure.org" />
      <code value="mm[Hg]"/>
    </valueQuantity>
    
    <effectiveDateTime value="2006-12-15"/>
    <status value="final"/>
    <reliability value="ok"/>
    <subject>
      <reference value="Patient/ID1213208"/>
    </subject>
  </Observation>
  
  </resource>
  <request>
    <method value="PUT"/>
    <url value="Observation/ID393-diastolic"/>
  </request>
</entry>
  <entry>
  <resource>
    
    
  <Observation>
    <id value="ID394-bp"/>
    <text>
      <status value="generated"/>
      <div xmlns="http://www.w3.org/1999/xhtml">2006-12-18: Blood pressure 128/82 mmHg</div>
    </text>
    <code>
      <coding>
        <system value="http://loinc.org"/>
        <code value="55284-4"/>
        <display value="Blood pressure systolic and diastolic"/>
      </coding>
    </code>
    <effectiveDateTime value="2006-12-18"/>
    <status value="final"/>
    <reliability value="ok"/>
    <subject>
      <reference value="Patient/ID1213208"/>
    </subject>
    <related>
      <type value="has-component"/>
      <target>
        <reference value="Observation/ID394-systolic"/>
      </target>
    </related>
    <related>
      <type value="has-component"/>
      <target>
        <reference value="Observation/ID394-diastolic"/>
      </target>
    </related>
    <encounter>
      <reference value="Encounter/ID394"/>
    </encounter>
    

  </Observation>
  
  </resource>
  <request>
    <method value="PUT"/>
    <url value="Observation/ID394-bp"/>
  </request>
</entry>
<entry>
  <resource>
    
    
  <Observation>
  <id value="ID394-systolic"/>
    <text>
      <status value="generated"/>
      <div xmlns="http://www.w3.org/1999/xhtml">2006-12-18: Systolic blood pressure = 128 mm[Hg]</div>
    </text>
    <code>
      <coding>
        <system value="http://loinc.org"/>
        <code value="8480-6"/>
        <display value="Systolic blood pressure"/>
      </coding>
    </code>
    <valueQuantity>
      <value value="128.0"/>
      <unit value="mm[Hg]"/>
      <system value="http://unitsofmeasure.org" />
      <code value="mm[Hg]"/>
    </valueQuantity>
    
    <effectiveDateTime value="2006-12-18"/>
    <status value="final"/>
    <reliability value="ok"/>
    <subject>
      <reference value="Patient/ID1213208"/>
    </subject>
  </Observation>
  
  </resource>
  <request>
    <method value="PUT"/>
    <url value="Observation/ID394-systolic"/>
  </request>
</entry>
<entry>
  <resource>
    
    
  <Observation>
  <id value="ID394-diastolic"/>
    <text>
      <status value="generated"/>
      <div xmlns="http://www.w3.org/1999/xhtml">2006-12-18: Diastolic blood pressure = 82 mm[Hg]</div>
    </text>
    <code>
      <coding>
        <system value="http://loinc.org"/>
        <code value="8462-4"/>
        <display value="Diastolic blood pressure"/>
      </coding>
    </code>
    <valueQuantity>
      <value value="82.0"/>
      <unit value="mm[Hg]"/>
      <system value="http://unitsofmeasure.org" />
      <code value="mm[Hg]"/>
    </valueQuantity>
    
    <effectiveDateTime value="2006-12-18"/>
    <status value="final"/>
    <reliability value="ok"/>
    <subject>
      <reference value="Patient/ID1213208"/>
    </subject>
  </Observation>
  
  </resource>
  <request>
    <method value="PUT"/>
    <url value="Observation/ID394-diastolic"/>
  </request>
</entry>
<entry>
  <resource>
    
    
  <Observation>
  <id value="ID375-height"/>
    <text>
      <status value="generated"/>
      <div xmlns="http://www.w3.org/1999/xhtml">1997-05-27: height = 161.29 cm</div>
    </text>
    <code>
      <coding>
        <system value="http://loinc.org"/>
        <code value="8302-2"/>
        <display value="height"/>
      </coding>
    </code>
    <valueQuantity>
      <value value="161.29"/>
      <unit value="cm"/>
      <system value="http://unitsofmeasure.org" />
      <code value="cm"/>
    </valueQuantity>
    
    <effectiveDateTime value="1997-05-27"/>
    <status value="final"/>
    <reliability value="ok"/>
    <subject>
      <reference value="Patient/ID1213208"/>
    </subject>
    <encounter>
      <reference value="Encounter/ID375"/>
    </encounter>
    
  </Observation>
  
  </resource>
  <request>
    <method value="PUT"/>
    <url value="Observation/ID375-height"/>
  </request>
</entry>
<entry>
  <resource>
    
    
  <Observation>
  <id value="ID375-heartrate"/>
    <text>
      <status value="generated"/>
      <div xmlns="http://www.w3.org/1999/xhtml">1997-05-27: heart_rate = 108.0 {beats}/min</div>
    </text>
    <code>
      <coding>
        <system value="http://loinc.org"/>
        <code value="8867-4"/>
        <display value="heart_rate"/>
      </coding>
    </code>
    <valueQuantity>
      <value value="108.0"/>
      <unit value="{beats}/min"/>
      <system value="http://unitsofmeasure.org" />
      <code value="{beats}/min"/>
    </valueQuantity>
    
    <effectiveDateTime value="1997-05-27"/>
    <status value="final"/>
    <reliability value="ok"/>
    <subject>
      <reference value="Patient/ID1213208"/>
    </subject>
    <encounter>
      <reference value="Encounter/ID375"/>
    </encounter>
    
  </Observation>
  
  </resource>
  <request>
    <method value="PUT"/>
    <url value="Observation/ID375-heartrate"/>
  </request>
</entry>
<entry>
  <resource>
    
    
  <Observation>
  <id value="ID375-respiratoryrate"/>
    <text>
      <status value="generated"/>
      <div xmlns="http://www.w3.org/1999/xhtml">1997-05-27: respiratory_rate = 14.0 {breaths}/min</div>
    </text>
    <code>
      <coding>
        <system value="http://loinc.org"/>
        <code value="9279-1"/>
        <display value="respiratory_rate"/>
      </coding>
    </code>
    <valueQuantity>
      <value value="14.0"/>
      <unit value="{breaths}/min"/>
      <system value="http://unitsofmeasure.org" />
      <code value="{breaths}/min"/>
    </valueQuantity>
    
    <effectiveDateTime value="1997-05-27"/>
    <status value="final"/>
    <reliability value="ok"/>
    <subject>
      <reference value="Patient/ID1213208"/>
    </subject>
    <encounter>
      <reference value="Encounter/ID375"/>
    </encounter>
    
  </Observation>
  
  </resource>
  <request>
    <method value="PUT"/>
    <url value="Observation/ID375-respiratoryrate"/>
  </request>
</entry>
<entry>
  <resource>
    
    
  <Observation>
  <id value="ID375-temperature"/>
    <text>
      <status value="generated"/>
      <div xmlns="http://www.w3.org/1999/xhtml">1997-05-27: temperature = 36.88889 Cel</div>
    </text>
    <code>
      <coding>
        <system value="http://loinc.org"/>
        <code value="8310-5"/>
        <display value="temperature"/>
      </coding>
    </code>
    <valueQuantity>
      <value value="36.88889"/>
      <unit value="Cel"/>
      <system value="http://unitsofmeasure.org" />
      <code value="Cel"/>
    </valueQuantity>
    
    <effectiveDateTime value="1997-05-27"/>
    <status value="final"/>
    <reliability value="ok"/>
    <subject>
      <reference value="Patient/ID1213208"/>
    </subject>
    <encounter>
      <reference value="Encounter/ID375"/>
    </encounter>
    
  </Observation>
  
  </resource>
  <request>
    <method value="PUT"/>
    <url value="Observation/ID375-temperature"/>
  </request>
</entry>
<entry>
  <resource>
    
    
  <Observation>
  <id value="ID375-weight"/>
    <text>
      <status value="generated"/>
      <div xmlns="http://www.w3.org/1999/xhtml">1997-05-27: weight = 107.0478 kg</div>
    </text>
    <code>
      <coding>
        <system value="http://loinc.org"/>
        <code value="3141-9"/>
        <display value="weight"/>
      </coding>
    </code>
    <valueQuantity>
      <value value="107.0478"/>
      <unit value="kg"/>
      <system value="http://unitsofmeasure.org" />
      <code value="kg"/>
    </valueQuantity>
    
    <effectiveDateTime value="1997-05-27"/>
    <status value="final"/>
    <reliability value="ok"/>
    <subject>
      <reference value="Patient/ID1213208"/>
    </subject>
    <encounter>
      <reference value="Encounter/ID375"/>
    </encounter>
    
  </Observation>
  
  </resource>
  <request>
    <method value="PUT"/>
    <url value="Observation/ID375-weight"/>
  </request>
</entry>
<entry>
  <resource>
    
    
  <Observation>
  <id value="ID375-bmi"/>
    <text>
      <status value="generated"/>
      <div xmlns="http://www.w3.org/1999/xhtml">1997-05-27: bmi = 41.1 kg/m2</div>
    </text>
    <code>
      <coding>
        <system value="http://loinc.org"/>
        <code value="39156-5"/>
        <display value="bmi"/>
      </coding>
    </code>
    <valueQuantity>
      <value value="41.1"/>
      <unit value="kg/m2"/>
      <system value="http://unitsofmeasure.org" />
      <code value="kg/m2"/>
    </valueQuantity>
    
    <effectiveDateTime value="1997-05-27"/>
    <status value="final"/>
    <reliability value="ok"/>
    <subject>
      <reference value="Patient/ID1213208"/>
    </subject>
    <encounter>
      <reference value="Encounter/ID375"/>
    </encounter>
    
  </Observation>
  
  </resource>
  <request>
    <method value="PUT"/>
    <url value="Observation/ID375-bmi"/>
  </request>
</entry>
<entry>
  <resource>
    
    
  <Observation>
  <id value="ID375-oxygensaturation"/>
    <text>
      <status value="generated"/>
      <div xmlns="http://www.w3.org/1999/xhtml">1997-05-27: oxygen_saturation = 87.0 %{HemoglobinSaturation}</div>
    </text>
    <code>
      <coding>
        <system value="http://loinc.org"/>
        <code value="2710-2"/>
        <display value="oxygen_saturation"/>
      </coding>
    </code>
    <valueQuantity>
      <value value="87.0"/>
      <unit value="%{HemoglobinSaturation}"/>
      <system value="http://unitsofmeasure.org" />
      <code value="%{HemoglobinSaturation}"/>
    </valueQuantity>
    
    <effectiveDateTime value="1997-05-27"/>
    <status value="final"/>
    <reliability value="ok"/>
    <subject>
      <reference value="Patient/ID1213208"/>
    </subject>
    <encounter>
      <reference value="Encounter/ID375"/>
    </encounter>
    
  </Observation>
  
  </resource>
  <request>
    <method value="PUT"/>
    <url value="Observation/ID375-oxygensaturation"/>
  </request>
</entry>
<entry>
  <resource>
    
    
  <Observation>
  <id value="ID376-height"/>
    <text>
      <status value="generated"/>
      <div xmlns="http://www.w3.org/1999/xhtml">1997-05-28: height = 161.544 cm</div>
    </text>
    <code>
      <coding>
        <system value="http://loinc.org"/>
        <code value="8302-2"/>
        <display value="height"/>
      </coding>
    </code>
    <valueQuantity>
      <value value="161.544"/>
      <unit value="cm"/>
      <system value="http://unitsofmeasure.org" />
      <code value="cm"/>
    </valueQuantity>
    
    <effectiveDateTime value="1997-05-28"/>
    <status value="final"/>
    <reliability value="ok"/>
    <subject>
      <reference value="Patient/ID1213208"/>
    </subject>
    <encounter>
      <reference value="Encounter/ID376"/>
    </encounter>
    
  </Observation>
  
  </resource>
  <request>
    <method value="PUT"/>
    <url value="Observation/ID376-height"/>
  </request>
</entry>
<entry>
  <resource>
    
    
  <Observation>
  <id value="ID376-heartrate"/>
    <text>
      <status value="generated"/>
      <div xmlns="http://www.w3.org/1999/xhtml">1997-05-28: heart_rate = 79.0 {beats}/min</div>
    </text>
    <code>
      <coding>
        <system value="http://loinc.org"/>
        <code value="8867-4"/>
        <display value="heart_rate"/>
      </coding>
    </code>
    <valueQuantity>
      <value value="79.0"/>
      <unit value="{beats}/min"/>
      <system value="http://unitsofmeasure.org" />
      <code value="{beats}/min"/>
    </valueQuantity>
    
    <effectiveDateTime value="1997-05-28"/>
    <status value="final"/>
    <reliability value="ok"/>
    <subject>
      <reference value="Patient/ID1213208"/>
    </subject>
    <encounter>
      <reference value="Encounter/ID376"/>
    </encounter>
    
  </Observation>
  
  </resource>
  <request>
    <method value="PUT"/>
    <url value="Observation/ID376-heartrate"/>
  </request>
</entry>
<entry>
  <resource>
    
    
  <Observation>
  <id value="ID376-respiratoryrate"/>
    <text>
      <status value="generated"/>
      <div xmlns="http://www.w3.org/1999/xhtml">1997-05-28: respiratory_rate = 14.0 {breaths}/min</div>
    </text>
    <code>
      <coding>
        <system value="http://loinc.org"/>
        <code value="9279-1"/>
        <display value="respiratory_rate"/>
      </coding>
    </code>
    <valueQuantity>
      <value value="14.0"/>
      <unit value="{breaths}/min"/>
      <system value="http://unitsofmeasure.org" />
      <code value="{breaths}/min"/>
    </valueQuantity>
    
    <effectiveDateTime value="1997-05-28"/>
    <status value="final"/>
    <reliability value="ok"/>
    <subject>
      <reference value="Patient/ID1213208"/>
    </subject>
    <encounter>
      <reference value="Encounter/ID376"/>
    </encounter>
    
  </Observation>
  
  </resource>
  <request>
    <method value="PUT"/>
    <url value="Observation/ID376-respiratoryrate"/>
  </request>
</entry>
<entry>
  <resource>
    
    
  <Observation>
  <id value="ID376-temperature"/>
    <text>
      <status value="generated"/>
      <div xmlns="http://www.w3.org/1999/xhtml">1997-05-28: temperature = 36.88889 Cel</div>
    </text>
    <code>
      <coding>
        <system value="http://loinc.org"/>
        <code value="8310-5"/>
        <display value="temperature"/>
      </coding>
    </code>
    <valueQuantity>
      <value value="36.88889"/>
      <unit value="Cel"/>
      <system value="http://unitsofmeasure.org" />
      <code value="Cel"/>
    </valueQuantity>
    
    <effectiveDateTime value="1997-05-28"/>
    <status value="final"/>
    <reliability value="ok"/>
    <subject>
      <reference value="Patient/ID1213208"/>
    </subject>
    <encounter>
      <reference value="Encounter/ID376"/>
    </encounter>
    
  </Observation>
  
  </resource>
  <request>
    <method value="PUT"/>
    <url value="Observation/ID376-temperature"/>
  </request>
</entry>
<entry>
  <resource>
    
    
  <Observation>
  <id value="ID376-weight"/>
    <text>
      <status value="generated"/>
      <div xmlns="http://www.w3.org/1999/xhtml">1997-05-28: weight = 108.63537 kg</div>
    </text>
    <code>
      <coding>
        <system value="http://loinc.org"/>
        <code value="3141-9"/>
        <display value="weight"/>
      </coding>
    </code>
    <valueQuantity>
      <value value="108.63537"/>
      <unit value="kg"/>
      <system value="http://unitsofmeasure.org" />
      <code value="kg"/>
    </valueQuantity>
    
    <effectiveDateTime value="1997-05-28"/>
    <status value="final"/>
    <reliability value="ok"/>
    <subject>
      <reference value="Patient/ID1213208"/>
    </subject>
    <encounter>
      <reference value="Encounter/ID376"/>
    </encounter>
    
  </Observation>
  
  </resource>
  <request>
    <method value="PUT"/>
    <url value="Observation/ID376-weight"/>
  </request>
</entry>
<entry>
  <resource>
    
    
  <Observation>
  <id value="ID376-bmi"/>
    <text>
      <status value="generated"/>
      <div xmlns="http://www.w3.org/1999/xhtml">1997-05-28: bmi = 41.9 kg/m2</div>
    </text>
    <code>
      <coding>
        <system value="http://loinc.org"/>
        <code value="39156-5"/>
        <display value="bmi"/>
      </coding>
    </code>
    <valueQuantity>
      <value value="41.9"/>
      <unit value="kg/m2"/>
      <system value="http://unitsofmeasure.org" />
      <code value="kg/m2"/>
    </valueQuantity>
    
    <effectiveDateTime value="1997-05-28"/>
    <status value="final"/>
    <reliability value="ok"/>
    <subject>
      <reference value="Patient/ID1213208"/>
    </subject>
    <encounter>
      <reference value="Encounter/ID376"/>
    </encounter>
    
  </Observation>
  
  </resource>
  <request>
    <method value="PUT"/>
    <url value="Observation/ID376-bmi"/>
  </request>
</entry>
<entry>
  <resource>
    
    
  <Observation>
  <id value="ID376-oxygensaturation"/>
    <text>
      <status value="generated"/>
      <div xmlns="http://www.w3.org/1999/xhtml">1997-05-28: oxygen_saturation = 87.0 %{HemoglobinSaturation}</div>
    </text>
    <code>
      <coding>
        <system value="http://loinc.org"/>
        <code value="2710-2"/>
        <display value="oxygen_saturation"/>
      </coding>
    </code>
    <valueQuantity>
      <value value="87.0"/>
      <unit value="%{HemoglobinSaturation}"/>
      <system value="http://unitsofmeasure.org" />
      <code value="%{HemoglobinSaturation}"/>
    </valueQuantity>
    
    <effectiveDateTime value="1997-05-28"/>
    <status value="final"/>
    <reliability value="ok"/>
    <subject>
      <reference value="Patient/ID1213208"/>
    </subject>
    <encounter>
      <reference value="Encounter/ID376"/>
    </encounter>
    
  </Observation>
  
  </resource>
  <request>
    <method value="PUT"/>
    <url value="Observation/ID376-oxygensaturation"/>
  </request>
</entry>
<entry>
  <resource>
    
    
  <Observation>
  <id value="ID377-height"/>
    <text>
      <status value="generated"/>
      <div xmlns="http://www.w3.org/1999/xhtml">2001-11-28: height = 160.274 cm</div>
    </text>
    <code>
      <coding>
        <system value="http://loinc.org"/>
        <code value="8302-2"/>
        <display value="height"/>
      </coding>
    </code>
    <valueQuantity>
      <value value="160.274"/>
      <unit value="cm"/>
      <system value="http://unitsofmeasure.org" />
      <code value="cm"/>
    </valueQuantity>
    
    <effectiveDateTime value="2001-11-28"/>
    <status value="final"/>
    <reliability value="ok"/>
    <subject>
      <reference value="Patient/ID1213208"/>
    </subject>
    <encounter>
      <reference value="Encounter/ID377"/>
    </encounter>
    
  </Observation>
  
  </resource>
  <request>
    <method value="PUT"/>
    <url value="Observation/ID377-height"/>
  </request>
</entry>
<entry>
  <resource>
    
    
  <Observation>
  <id value="ID377-heartrate"/>
    <text>
      <status value="generated"/>
      <div xmlns="http://www.w3.org/1999/xhtml">2001-11-28: heart_rate = 80.0 {beats}/min</div>
    </text>
    <code>
      <coding>
        <system value="http://loinc.org"/>
        <code value="8867-4"/>
        <display value="heart_rate"/>
      </coding>
    </code>
    <valueQuantity>
      <value value="80.0"/>
      <unit value="{beats}/min"/>
      <system value="http://unitsofmeasure.org" />
      <code value="{beats}/min"/>
    </valueQuantity>
    
    <effectiveDateTime value="2001-11-28"/>
    <status value="final"/>
    <reliability value="ok"/>
    <subject>
      <reference value="Patient/ID1213208"/>
    </subject>
    <encounter>
      <reference value="Encounter/ID377"/>
    </encounter>
    
  </Observation>
  
  </resource>
  <request>
    <method value="PUT"/>
    <url value="Observation/ID377-heartrate"/>
  </request>
</entry>
<entry>
  <resource>
    
    
  <Observation>
  <id value="ID377-respiratoryrate"/>
    <text>
      <status value="generated"/>
      <div xmlns="http://www.w3.org/1999/xhtml">2001-11-28: respiratory_rate = 15.0 {breaths}/min</div>
    </text>
    <code>
      <coding>
        <system value="http://loinc.org"/>
        <code value="9279-1"/>
        <display value="respiratory_rate"/>
      </coding>
    </code>
    <valueQuantity>
      <value value="15.0"/>
      <unit value="{breaths}/min"/>
      <system value="http://unitsofmeasure.org" />
      <code value="{breaths}/min"/>
    </valueQuantity>
    
    <effectiveDateTime value="2001-11-28"/>
    <status value="final"/>
    <reliability value="ok"/>
    <subject>
      <reference value="Patient/ID1213208"/>
    </subject>
    <encounter>
      <reference value="Encounter/ID377"/>
    </encounter>
    
  </Observation>
  
  </resource>
  <request>
    <method value="PUT"/>
    <url value="Observation/ID377-respiratoryrate"/>
  </request>
</entry>
<entry>
  <resource>
    
    
  <Observation>
  <id value="ID377-temperature"/>
    <text>
      <status value="generated"/>
      <div xmlns="http://www.w3.org/1999/xhtml">2001-11-28: temperature = 36.88889 Cel</div>
    </text>
    <code>
      <coding>
        <system value="http://loinc.org"/>
        <code value="8310-5"/>
        <display value="temperature"/>
      </coding>
    </code>
    <valueQuantity>
      <value value="36.88889"/>
      <unit value="Cel"/>
      <system value="http://unitsofmeasure.org" />
      <code value="Cel"/>
    </valueQuantity>
    
    <effectiveDateTime value="2001-11-28"/>
    <status value="final"/>
    <reliability value="ok"/>
    <subject>
      <reference value="Patient/ID1213208"/>
    </subject>
    <encounter>
      <reference value="Encounter/ID377"/>
    </encounter>
    
  </Observation>
  
  </resource>
  <request>
    <method value="PUT"/>
    <url value="Observation/ID377-temperature"/>
  </request>
</entry>
<entry>
  <resource>
    
    
  <Observation>
  <id value="ID377-weight"/>
    <text>
      <status value="generated"/>
      <div xmlns="http://www.w3.org/1999/xhtml">2001-11-28: weight = 111.493 kg</div>
    </text>
    <code>
      <coding>
        <system value="http://loinc.org"/>
        <code value="3141-9"/>
        <display value="weight"/>
      </coding>
    </code>
    <valueQuantity>
      <value value="111.493"/>
      <unit value="kg"/>
      <system value="http://unitsofmeasure.org" />
      <code value="kg"/>
    </valueQuantity>
    
    <effectiveDateTime value="2001-11-28"/>
    <status value="final"/>
    <reliability value="ok"/>
    <subject>
      <reference value="Patient/ID1213208"/>
    </subject>
    <encounter>
      <reference value="Encounter/ID377"/>
    </encounter>
    
  </Observation>
  
  </resource>
  <request>
    <method value="PUT"/>
    <url value="Observation/ID377-weight"/>
  </request>
</entry>
<entry>
  <resource>
    
    
  <Observation>
  <id value="ID377-bmi"/>
    <text>
      <status value="generated"/>
      <div xmlns="http://www.w3.org/1999/xhtml">2001-11-28: bmi = 44.2 kg/m2</div>
    </text>
    <code>
      <coding>
        <system value="http://loinc.org"/>
        <code value="39156-5"/>
        <display value="bmi"/>
      </coding>
    </code>
    <valueQuantity>
      <value value="44.2"/>
      <unit value="kg/m2"/>
      <system value="http://unitsofmeasure.org" />
      <code value="kg/m2"/>
    </valueQuantity>
    
    <effectiveDateTime value="2001-11-28"/>
    <status value="final"/>
    <reliability value="ok"/>
    <subject>
      <reference value="Patient/ID1213208"/>
    </subject>
    <encounter>
      <reference value="Encounter/ID377"/>
    </encounter>
    
  </Observation>
  
  </resource>
  <request>
    <method value="PUT"/>
    <url value="Observation/ID377-bmi"/>
  </request>
</entry>
<entry>
  <resource>
    
    
  <Observation>
  <id value="ID377-oxygensaturation"/>
    <text>
      <status value="generated"/>
      <div xmlns="http://www.w3.org/1999/xhtml">2001-11-28: oxygen_saturation = 95.0 %{HemoglobinSaturation}</div>
    </text>
    <code>
      <coding>
        <system value="http://loinc.org"/>
        <code value="2710-2"/>
        <display value="oxygen_saturation"/>
      </coding>
    </code>
    <valueQuantity>
      <value value="95.0"/>
      <unit value="%{HemoglobinSaturation}"/>
      <system value="http://unitsofmeasure.org" />
      <code value="%{HemoglobinSaturation}"/>
    </valueQuantity>
    
    <effectiveDateTime value="2001-11-28"/>
    <status value="final"/>
    <reliability value="ok"/>
    <subject>
      <reference value="Patient/ID1213208"/>
    </subject>
    <encounter>
      <reference value="Encounter/ID377"/>
    </encounter>
    
  </Observation>
  
  </resource>
  <request>
    <method value="PUT"/>
    <url value="Observation/ID377-oxygensaturation"/>
  </request>
</entry>
<entry>
  <resource>
    
    
  <Observation>
  <id value="ID378-height"/>
    <text>
      <status value="generated"/>
      <div xmlns="http://www.w3.org/1999/xhtml">2001-11-29: height = 160.02 cm</div>
    </text>
    <code>
      <coding>
        <system value="http://loinc.org"/>
        <code value="8302-2"/>
        <display value="height"/>
      </coding>
    </code>
    <valueQuantity>
      <value value="160.02"/>
      <unit value="cm"/>
      <system value="http://unitsofmeasure.org" />
      <code value="cm"/>
    </valueQuantity>
    
    <effectiveDateTime value="2001-11-29"/>
    <status value="final"/>
    <reliability value="ok"/>
    <subject>
      <reference value="Patient/ID1213208"/>
    </subject>
    <encounter>
      <reference value="Encounter/ID378"/>
    </encounter>
    
  </Observation>
  
  </resource>
  <request>
    <method value="PUT"/>
    <url value="Observation/ID378-height"/>
  </request>
</entry>
<entry>
  <resource>
    
    
  <Observation>
  <id value="ID378-heartrate"/>
    <text>
      <status value="generated"/>
      <div xmlns="http://www.w3.org/1999/xhtml">2001-11-29: heart_rate = 72.0 {beats}/min</div>
    </text>
    <code>
      <coding>
        <system value="http://loinc.org"/>
        <code value="8867-4"/>
        <display value="heart_rate"/>
      </coding>
    </code>
    <valueQuantity>
      <value value="72.0"/>
      <unit value="{beats}/min"/>
      <system value="http://unitsofmeasure.org" />
      <code value="{beats}/min"/>
    </valueQuantity>
    
    <effectiveDateTime value="2001-11-29"/>
    <status value="final"/>
    <reliability value="ok"/>
    <subject>
      <reference value="Patient/ID1213208"/>
    </subject>
    <encounter>
      <reference value="Encounter/ID378"/>
    </encounter>
    
  </Observation>
  
  </resource>
  <request>
    <method value="PUT"/>
    <url value="Observation/ID378-heartrate"/>
  </request>
</entry>
<entry>
  <resource>
    
    
  <Observation>
  <id value="ID378-respiratoryrate"/>
    <text>
      <status value="generated"/>
      <div xmlns="http://www.w3.org/1999/xhtml">2001-11-29: respiratory_rate = 15.0 {breaths}/min</div>
    </text>
    <code>
      <coding>
        <system value="http://loinc.org"/>
        <code value="9279-1"/>
        <display value="respiratory_rate"/>
      </coding>
    </code>
    <valueQuantity>
      <value value="15.0"/>
      <unit value="{breaths}/min"/>
      <system value="http://unitsofmeasure.org" />
      <code value="{breaths}/min"/>
    </valueQuantity>
    
    <effectiveDateTime value="2001-11-29"/>
    <status value="final"/>
    <reliability value="ok"/>
    <subject>
      <reference value="Patient/ID1213208"/>
    </subject>
    <encounter>
      <reference value="Encounter/ID378"/>
    </encounter>
    
  </Observation>
  
  </resource>
  <request>
    <method value="PUT"/>
    <url value="Observation/ID378-respiratoryrate"/>
  </request>
</entry>
<entry>
  <resource>
    
    
  <Observation>
  <id value="ID378-temperature"/>
    <text>
      <status value="generated"/>
      <div xmlns="http://www.w3.org/1999/xhtml">2001-11-29: temperature = 36.88889 Cel</div>
    </text>
    <code>
      <coding>
        <system value="http://loinc.org"/>
        <code value="8310-5"/>
        <display value="temperature"/>
      </coding>
    </code>
    <valueQuantity>
      <value value="36.88889"/>
      <unit value="Cel"/>
      <system value="http://unitsofmeasure.org" />
      <code value="Cel"/>
    </valueQuantity>
    
    <effectiveDateTime value="2001-11-29"/>
    <status value="final"/>
    <reliability value="ok"/>
    <subject>
      <reference value="Patient/ID1213208"/>
    </subject>
    <encounter>
      <reference value="Encounter/ID378"/>
    </encounter>
    
  </Observation>
  
  </resource>
  <request>
    <method value="PUT"/>
    <url value="Observation/ID378-temperature"/>
  </request>
</entry>
<entry>
  <resource>
    
    
  <Observation>
  <id value="ID378-weight"/>
    <text>
      <status value="generated"/>
      <div xmlns="http://www.w3.org/1999/xhtml">2001-11-29: weight = 111.81052 kg</div>
    </text>
    <code>
      <coding>
        <system value="http://loinc.org"/>
        <code value="3141-9"/>
        <display value="weight"/>
      </coding>
    </code>
    <valueQuantity>
      <value value="111.81052"/>
      <unit value="kg"/>
      <system value="http://unitsofmeasure.org" />
      <code value="kg"/>
    </valueQuantity>
    
    <effectiveDateTime value="2001-11-29"/>
    <status value="final"/>
    <reliability value="ok"/>
    <subject>
      <reference value="Patient/ID1213208"/>
    </subject>
    <encounter>
      <reference value="Encounter/ID378"/>
    </encounter>
    
  </Observation>
  
  </resource>
  <request>
    <method value="PUT"/>
    <url value="Observation/ID378-weight"/>
  </request>
</entry>
<entry>
  <resource>
    
    
  <Observation>
  <id value="ID378-bmi"/>
    <text>
      <status value="generated"/>
      <div xmlns="http://www.w3.org/1999/xhtml">2001-11-29: bmi = 43.6 kg/m2</div>
    </text>
    <code>
      <coding>
        <system value="http://loinc.org"/>
        <code value="39156-5"/>
        <display value="bmi"/>
      </coding>
    </code>
    <valueQuantity>
      <value value="43.6"/>
      <unit value="kg/m2"/>
      <system value="http://unitsofmeasure.org" />
      <code value="kg/m2"/>
    </valueQuantity>
    
    <effectiveDateTime value="2001-11-29"/>
    <status value="final"/>
    <reliability value="ok"/>
    <subject>
      <reference value="Patient/ID1213208"/>
    </subject>
    <encounter>
      <reference value="Encounter/ID378"/>
    </encounter>
    
  </Observation>
  
  </resource>
  <request>
    <method value="PUT"/>
    <url value="Observation/ID378-bmi"/>
  </request>
</entry>
<entry>
  <resource>
    
    
  <Observation>
  <id value="ID378-oxygensaturation"/>
    <text>
      <status value="generated"/>
      <div xmlns="http://www.w3.org/1999/xhtml">2001-11-29: oxygen_saturation = 95.0 %{HemoglobinSaturation}</div>
    </text>
    <code>
      <coding>
        <system value="http://loinc.org"/>
        <code value="2710-2"/>
        <display value="oxygen_saturation"/>
      </coding>
    </code>
    <valueQuantity>
      <value value="95.0"/>
      <unit value="%{HemoglobinSaturation}"/>
      <system value="http://unitsofmeasure.org" />
      <code value="%{HemoglobinSaturation}"/>
    </valueQuantity>
    
    <effectiveDateTime value="2001-11-29"/>
    <status value="final"/>
    <reliability value="ok"/>
    <subject>
      <reference value="Patient/ID1213208"/>
    </subject>
    <encounter>
      <reference value="Encounter/ID378"/>
    </encounter>
    
  </Observation>
  
  </resource>
  <request>
    <method value="PUT"/>
    <url value="Observation/ID378-oxygensaturation"/>
  </request>
</entry>
<entry>
  <resource>
    
    
  <Observation>
  <id value="ID379-height"/>
    <text>
      <status value="generated"/>
      <div xmlns="http://www.w3.org/1999/xhtml">2003-06-05: height = 162.306 cm</div>
    </text>
    <code>
      <coding>
        <system value="http://loinc.org"/>
        <code value="8302-2"/>
        <display value="height"/>
      </coding>
    </code>
    <valueQuantity>
      <value value="162.306"/>
      <unit value="cm"/>
      <system value="http://unitsofmeasure.org" />
      <code value="cm"/>
    </valueQuantity>
    
    <effectiveDateTime value="2003-06-05"/>
    <status value="final"/>
    <reliability value="ok"/>
    <subject>
      <reference value="Patient/ID1213208"/>
    </subject>
    <encounter>
      <reference value="Encounter/ID379-e"/>
    </encounter>
    
  </Observation>
  
  </resource>
  <request>
    <method value="PUT"/>
    <url value="Observation/ID379-height"/>
  </request>
</entry>
<entry>
  <resource>
    
    
  <Observation>
  <id value="ID379-heartrate"/>
    <text>
      <status value="generated"/>
      <div xmlns="http://www.w3.org/1999/xhtml">2003-06-05: heart_rate = 77.0 {beats}/min</div>
    </text>
    <code>
      <coding>
        <system value="http://loinc.org"/>
        <code value="8867-4"/>
        <display value="heart_rate"/>
      </coding>
    </code>
    <valueQuantity>
      <value value="77.0"/>
      <unit value="{beats}/min"/>
      <system value="http://unitsofmeasure.org" />
      <code value="{beats}/min"/>
    </valueQuantity>
    
    <effectiveDateTime value="2003-06-05"/>
    <status value="final"/>
    <reliability value="ok"/>
    <subject>
      <reference value="Patient/ID1213208"/>
    </subject>
    <encounter>
      <reference value="Encounter/ID379-e"/>
    </encounter>
    
  </Observation>
  
  </resource>
  <request>
    <method value="PUT"/>
    <url value="Observation/ID379-heartrate"/>
  </request>
</entry>
<entry>
  <resource>
    
    
  <Observation>
  <id value="ID379-respiratoryrate"/>
    <text>
      <status value="generated"/>
      <div xmlns="http://www.w3.org/1999/xhtml">2003-06-05: respiratory_rate = 14.0 {breaths}/min</div>
    </text>
    <code>
      <coding>
        <system value="http://loinc.org"/>
        <code value="9279-1"/>
        <display value="respiratory_rate"/>
      </coding>
    </code>
    <valueQuantity>
      <value value="14.0"/>
      <unit value="{breaths}/min"/>
      <system value="http://unitsofmeasure.org" />
      <code value="{breaths}/min"/>
    </valueQuantity>
    
    <effectiveDateTime value="2003-06-05"/>
    <status value="final"/>
    <reliability value="ok"/>
    <subject>
      <reference value="Patient/ID1213208"/>
    </subject>
    <encounter>
      <reference value="Encounter/ID379-e"/>
    </encounter>
    
  </Observation>
  
  </resource>
  <request>
    <method value="PUT"/>
    <url value="Observation/ID379-respiratoryrate"/>
  </request>
</entry>
<entry>
  <resource>
    
    
  <Observation>
  <id value="ID379-temperature"/>
    <text>
      <status value="generated"/>
      <div xmlns="http://www.w3.org/1999/xhtml">2003-06-05: temperature = 36.77778 Cel</div>
    </text>
    <code>
      <coding>
        <system value="http://loinc.org"/>
        <code value="8310-5"/>
        <display value="temperature"/>
      </coding>
    </code>
    <valueQuantity>
      <value value="36.77778"/>
      <unit value="Cel"/>
      <system value="http://unitsofmeasure.org" />
      <code value="Cel"/>
    </valueQuantity>
    
    <effectiveDateTime value="2003-06-05"/>
    <status value="final"/>
    <reliability value="ok"/>
    <subject>
      <reference value="Patient/ID1213208"/>
    </subject>
    <encounter>
      <reference value="Encounter/ID379-e"/>
    </encounter>
    
  </Observation>
  
  </resource>
  <request>
    <method value="PUT"/>
    <url value="Observation/ID379-temperature"/>
  </request>
</entry>
<entry>
  <resource>
    
    
  <Observation>
  <id value="ID379-weight"/>
    <text>
      <status value="generated"/>
      <div xmlns="http://www.w3.org/1999/xhtml">2003-06-05: weight = 114.53207 kg</div>
    </text>
    <code>
      <coding>
        <system value="http://loinc.org"/>
        <code value="3141-9"/>
        <display value="weight"/>
      </coding>
    </code>
    <valueQuantity>
      <value value="114.53207"/>
      <unit value="kg"/>
      <system value="http://unitsofmeasure.org" />
      <code value="kg"/>
    </valueQuantity>
    
    <effectiveDateTime value="2003-06-05"/>
    <status value="final"/>
    <reliability value="ok"/>
    <subject>
      <reference value="Patient/ID1213208"/>
    </subject>
    <encounter>
      <reference value="Encounter/ID379-e"/>
    </encounter>
    
  </Observation>
  
  </resource>
  <request>
    <method value="PUT"/>
    <url value="Observation/ID379-weight"/>
  </request>
</entry>
<entry>
  <resource>
    
    
  <Observation>
  <id value="ID379-bmi"/>
    <text>
      <status value="generated"/>
      <div xmlns="http://www.w3.org/1999/xhtml">2003-06-05: bmi = 43.5 kg/m2</div>
    </text>
    <code>
      <coding>
        <system value="http://loinc.org"/>
        <code value="39156-5"/>
        <display value="bmi"/>
      </coding>
    </code>
    <valueQuantity>
      <value value="43.5"/>
      <unit value="kg/m2"/>
      <system value="http://unitsofmeasure.org" />
      <code value="kg/m2"/>
    </valueQuantity>
    
    <effectiveDateTime value="2003-06-05"/>
    <status value="final"/>
    <reliability value="ok"/>
    <subject>
      <reference value="Patient/ID1213208"/>
    </subject>
    <encounter>
      <reference value="Encounter/ID379-e"/>
    </encounter>
    
  </Observation>
  
  </resource>
  <request>
    <method value="PUT"/>
    <url value="Observation/ID379-bmi"/>
  </request>
</entry>
<entry>
  <resource>
    
    
  <Observation>
  <id value="ID379-oxygensaturation"/>
    <text>
      <status value="generated"/>
      <div xmlns="http://www.w3.org/1999/xhtml">2003-06-05: oxygen_saturation = 97.0 %{HemoglobinSaturation}</div>
    </text>
    <code>
      <coding>
        <system value="http://loinc.org"/>
        <code value="2710-2"/>
        <display value="oxygen_saturation"/>
      </coding>
    </code>
    <valueQuantity>
      <value value="97.0"/>
      <unit value="%{HemoglobinSaturation}"/>
      <system value="http://unitsofmeasure.org" />
      <code value="%{HemoglobinSaturation}"/>
    </valueQuantity>
    
    <effectiveDateTime value="2003-06-05"/>
    <status value="final"/>
    <reliability value="ok"/>
    <subject>
      <reference value="Patient/ID1213208"/>
    </subject>
    <encounter>
      <reference value="Encounter/ID379-e"/>
    </encounter>
    
  </Observation>
  
  </resource>
  <request>
    <method value="PUT"/>
    <url value="Observation/ID379-oxygensaturation"/>
  </request>
</entry>
<entry>
  <resource>
    
    
  <Observation>
  <id value="ID380-height"/>
    <text>
      <status value="generated"/>
      <div xmlns="http://www.w3.org/1999/xhtml">2003-06-06: height = 162.052 cm</div>
    </text>
    <code>
      <coding>
        <system value="http://loinc.org"/>
        <code value="8302-2"/>
        <display value="height"/>
      </coding>
    </code>
    <valueQuantity>
      <value value="162.052"/>
      <unit value="cm"/>
      <system value="http://unitsofmeasure.org" />
      <code value="cm"/>
    </valueQuantity>
    
    <effectiveDateTime value="2003-06-06"/>
    <status value="final"/>
    <reliability value="ok"/>
    <subject>
      <reference value="Patient/ID1213208"/>
    </subject>
    <encounter>
      <reference value="Encounter/ID380-e"/>
    </encounter>
    
  </Observation>
  
  </resource>
  <request>
    <method value="PUT"/>
    <url value="Observation/ID380-height"/>
  </request>
</entry>
<entry>
  <resource>
    
    
  <Observation>
  <id value="ID380-heartrate"/>
    <text>
      <status value="generated"/>
      <div xmlns="http://www.w3.org/1999/xhtml">2003-06-06: heart_rate = 71.0 {beats}/min</div>
    </text>
    <code>
      <coding>
        <system value="http://loinc.org"/>
        <code value="8867-4"/>
        <display value="heart_rate"/>
      </coding>
    </code>
    <valueQuantity>
      <value value="71.0"/>
      <unit value="{beats}/min"/>
      <system value="http://unitsofmeasure.org" />
      <code value="{beats}/min"/>
    </valueQuantity>
    
    <effectiveDateTime value="2003-06-06"/>
    <status value="final"/>
    <reliability value="ok"/>
    <subject>
      <reference value="Patient/ID1213208"/>
    </subject>
    <encounter>
      <reference value="Encounter/ID380-e"/>
    </encounter>
    
  </Observation>
  
  </resource>
  <request>
    <method value="PUT"/>
    <url value="Observation/ID380-heartrate"/>
  </request>
</entry>
<entry>
  <resource>
    
    
  <Observation>
  <id value="ID380-respiratoryrate"/>
    <text>
      <status value="generated"/>
      <div xmlns="http://www.w3.org/1999/xhtml">2003-06-06: respiratory_rate = 14.0 {breaths}/min</div>
    </text>
    <code>
      <coding>
        <system value="http://loinc.org"/>
        <code value="9279-1"/>
        <display value="respiratory_rate"/>
      </coding>
    </code>
    <valueQuantity>
      <value value="14.0"/>
      <unit value="{breaths}/min"/>
      <system value="http://unitsofmeasure.org" />
      <code value="{breaths}/min"/>
    </valueQuantity>
    
    <effectiveDateTime value="2003-06-06"/>
    <status value="final"/>
    <reliability value="ok"/>
    <subject>
      <reference value="Patient/ID1213208"/>
    </subject>
    <encounter>
      <reference value="Encounter/ID380-e"/>
    </encounter>
    
  </Observation>
  
  </resource>
  <request>
    <method value="PUT"/>
    <url value="Observation/ID380-respiratoryrate"/>
  </request>
</entry>
<entry>
  <resource>
    
    
  <Observation>
  <id value="ID380-temperature"/>
    <text>
      <status value="generated"/>
      <div xmlns="http://www.w3.org/1999/xhtml">2003-06-06: temperature = 36.83333 Cel</div>
    </text>
    <code>
      <coding>
        <system value="http://loinc.org"/>
        <code value="8310-5"/>
        <display value="temperature"/>
      </coding>
    </code>
    <valueQuantity>
      <value value="36.83333"/>
      <unit value="Cel"/>
      <system value="http://unitsofmeasure.org" />
      <code value="Cel"/>
    </valueQuantity>
    
    <effectiveDateTime value="2003-06-06"/>
    <status value="final"/>
    <reliability value="ok"/>
    <subject>
      <reference value="Patient/ID1213208"/>
    </subject>
    <encounter>
      <reference value="Encounter/ID380-e"/>
    </encounter>
    
  </Observation>
  
  </resource>
  <request>
    <method value="PUT"/>
    <url value="Observation/ID380-temperature"/>
  </request>
</entry>
<entry>
  <resource>
    
    
  <Observation>
  <id value="ID380-weight"/>
    <text>
      <status value="generated"/>
      <div xmlns="http://www.w3.org/1999/xhtml">2003-06-06: weight = 116.84539 kg</div>
    </text>
    <code>
      <coding>
        <system value="http://loinc.org"/>
        <code value="3141-9"/>
        <display value="weight"/>
      </coding>
    </code>
    <valueQuantity>
      <value value="116.84539"/>
      <unit value="kg"/>
      <system value="http://unitsofmeasure.org" />
      <code value="kg"/>
    </valueQuantity>
    
    <effectiveDateTime value="2003-06-06"/>
    <status value="final"/>
    <reliability value="ok"/>
    <subject>
      <reference value="Patient/ID1213208"/>
    </subject>
    <encounter>
      <reference value="Encounter/ID380-e"/>
    </encounter>
    
  </Observation>
  
  </resource>
  <request>
    <method value="PUT"/>
    <url value="Observation/ID380-weight"/>
  </request>
</entry>
<entry>
  <resource>
    
    
  <Observation>
  <id value="ID380-bmi"/>
    <text>
      <status value="generated"/>
      <div xmlns="http://www.w3.org/1999/xhtml">2003-06-06: bmi = 44.4 kg/m2</div>
    </text>
    <code>
      <coding>
        <system value="http://loinc.org"/>
        <code value="39156-5"/>
        <display value="bmi"/>
      </coding>
    </code>
    <valueQuantity>
      <value value="44.4"/>
      <unit value="kg/m2"/>
      <system value="http://unitsofmeasure.org" />
      <code value="kg/m2"/>
    </valueQuantity>
    
    <effectiveDateTime value="2003-06-06"/>
    <status value="final"/>
    <reliability value="ok"/>
    <subject>
      <reference value="Patient/ID1213208"/>
    </subject>
    <encounter>
      <reference value="Encounter/ID380-e"/>
    </encounter>
    
  </Observation>
  
  </resource>
  <request>
    <method value="PUT"/>
    <url value="Observation/ID380-bmi"/>
  </request>
</entry>
<entry>
  <resource>
    
    
  <Observation>
  <id value="ID380-oxygensaturation"/>
    <text>
      <status value="generated"/>
      <div xmlns="http://www.w3.org/1999/xhtml">2003-06-06: oxygen_saturation = 97.0 %{HemoglobinSaturation}</div>
    </text>
    <code>
      <coding>
        <system value="http://loinc.org"/>
        <code value="2710-2"/>
        <display value="oxygen_saturation"/>
      </coding>
    </code>
    <valueQuantity>
      <value value="97.0"/>
      <unit value="%{HemoglobinSaturation}"/>
      <system value="http://unitsofmeasure.org" />
      <code value="%{HemoglobinSaturation}"/>
    </valueQuantity>
    
    <effectiveDateTime value="2003-06-06"/>
    <status value="final"/>
    <reliability value="ok"/>
    <subject>
      <reference value="Patient/ID1213208"/>
    </subject>
    <encounter>
      <reference value="Encounter/ID380-e"/>
    </encounter>
    
  </Observation>
  
  </resource>
  <request>
    <method value="PUT"/>
    <url value="Observation/ID380-oxygensaturation"/>
  </request>
</entry>
<entry>
  <resource>
    
    
  <Observation>
  <id value="ID381-height"/>
    <text>
      <status value="generated"/>
      <div xmlns="http://www.w3.org/1999/xhtml">2003-06-09: height = 162.306 cm</div>
    </text>
    <code>
      <coding>
        <system value="http://loinc.org"/>
        <code value="8302-2"/>
        <display value="height"/>
      </coding>
    </code>
    <valueQuantity>
      <value value="162.306"/>
      <unit value="cm"/>
      <system value="http://unitsofmeasure.org" />
      <code value="cm"/>
    </valueQuantity>
    
    <effectiveDateTime value="2003-06-09"/>
    <status value="final"/>
    <reliability value="ok"/>
    <subject>
      <reference value="Patient/ID1213208"/>
    </subject>
    <encounter>
      <reference value="Encounter/ID381-e"/>
    </encounter>
    
  </Observation>
  
  </resource>
  <request>
    <method value="PUT"/>
    <url value="Observation/ID381-height"/>
  </request>
</entry>
<entry>
  <resource>
    
    
  <Observation>
  <id value="ID381-heartrate"/>
    <text>
      <status value="generated"/>
      <div xmlns="http://www.w3.org/1999/xhtml">2003-06-09: heart_rate = 75.0 {beats}/min</div>
    </text>
    <code>
      <coding>
        <system value="http://loinc.org"/>
        <code value="8867-4"/>
        <display value="heart_rate"/>
      </coding>
    </code>
    <valueQuantity>
      <value value="75.0"/>
      <unit value="{beats}/min"/>
      <system value="http://unitsofmeasure.org" />
      <code value="{beats}/min"/>
    </valueQuantity>
    
    <effectiveDateTime value="2003-06-09"/>
    <status value="final"/>
    <reliability value="ok"/>
    <subject>
      <reference value="Patient/ID1213208"/>
    </subject>
    <encounter>
      <reference value="Encounter/ID381-e"/>
    </encounter>
    
  </Observation>
  
  </resource>
  <request>
    <method value="PUT"/>
    <url value="Observation/ID381-heartrate"/>
  </request>
</entry>
<entry>
  <resource>
    
    
  <Observation>
  <id value="ID381-respiratoryrate"/>
    <text>
      <status value="generated"/>
      <div xmlns="http://www.w3.org/1999/xhtml">2003-06-09: respiratory_rate = 14.0 {breaths}/min</div>
    </text>
    <code>
      <coding>
        <system value="http://loinc.org"/>
        <code value="9279-1"/>
        <display value="respiratory_rate"/>
      </coding>
    </code>
    <valueQuantity>
      <value value="14.0"/>
      <unit value="{breaths}/min"/>
      <system value="http://unitsofmeasure.org" />
      <code value="{breaths}/min"/>
    </valueQuantity>
    
    <effectiveDateTime value="2003-06-09"/>
    <status value="final"/>
    <reliability value="ok"/>
    <subject>
      <reference value="Patient/ID1213208"/>
    </subject>
    <encounter>
      <reference value="Encounter/ID381-e"/>
    </encounter>
    
  </Observation>
  
  </resource>
  <request>
    <method value="PUT"/>
    <url value="Observation/ID381-respiratoryrate"/>
  </request>
</entry>
<entry>
  <resource>
    
    
  <Observation>
  <id value="ID381-temperature"/>
    <text>
      <status value="generated"/>
      <div xmlns="http://www.w3.org/1999/xhtml">2003-06-09: temperature = 36.77778 Cel</div>
    </text>
    <code>
      <coding>
        <system value="http://loinc.org"/>
        <code value="8310-5"/>
        <display value="temperature"/>
      </coding>
    </code>
    <valueQuantity>
      <value value="36.77778"/>
      <unit value="Cel"/>
      <system value="http://unitsofmeasure.org" />
      <code value="Cel"/>
    </valueQuantity>
    
    <effectiveDateTime value="2003-06-09"/>
    <status value="final"/>
    <reliability value="ok"/>
    <subject>
      <reference value="Patient/ID1213208"/>
    </subject>
    <encounter>
      <reference value="Encounter/ID381-e"/>
    </encounter>
    
  </Observation>
  
  </resource>
  <request>
    <method value="PUT"/>
    <url value="Observation/ID381-temperature"/>
  </request>
</entry>
<entry>
  <resource>
    
    
  <Observation>
  <id value="ID381-weight"/>
    <text>
      <status value="generated"/>
      <div xmlns="http://www.w3.org/1999/xhtml">2003-06-09: weight = 111.81052 kg</div>
    </text>
    <code>
      <coding>
        <system value="http://loinc.org"/>
        <code value="3141-9"/>
        <display value="weight"/>
      </coding>
    </code>
    <valueQuantity>
      <value value="111.81052"/>
      <unit value="kg"/>
      <system value="http://unitsofmeasure.org" />
      <code value="kg"/>
    </valueQuantity>
    
    <effectiveDateTime value="2003-06-09"/>
    <status value="final"/>
    <reliability value="ok"/>
    <subject>
      <reference value="Patient/ID1213208"/>
    </subject>
    <encounter>
      <reference value="Encounter/ID381-e"/>
    </encounter>
    
  </Observation>
  
  </resource>
  <request>
    <method value="PUT"/>
    <url value="Observation/ID381-weight"/>
  </request>
</entry>
<entry>
  <resource>
    
    
  <Observation>
  <id value="ID381-bmi"/>
    <text>
      <status value="generated"/>
      <div xmlns="http://www.w3.org/1999/xhtml">2003-06-09: bmi = 42.4 kg/m2</div>
    </text>
    <code>
      <coding>
        <system value="http://loinc.org"/>
        <code value="39156-5"/>
        <display value="bmi"/>
      </coding>
    </code>
    <valueQuantity>
      <value value="42.4"/>
      <unit value="kg/m2"/>
      <system value="http://unitsofmeasure.org" />
      <code value="kg/m2"/>
    </valueQuantity>
    
    <effectiveDateTime value="2003-06-09"/>
    <status value="final"/>
    <reliability value="ok"/>
    <subject>
      <reference value="Patient/ID1213208"/>
    </subject>
    <encounter>
      <reference value="Encounter/ID381-e"/>
    </encounter>
    
  </Observation>
  
  </resource>
  <request>
    <method value="PUT"/>
    <url value="Observation/ID381-bmi"/>
  </request>
</entry>
<entry>
  <resource>
    
    
  <Observation>
  <id value="ID381-oxygensaturation"/>
    <text>
      <status value="generated"/>
      <div xmlns="http://www.w3.org/1999/xhtml">2003-06-09: oxygen_saturation = 97.0 %{HemoglobinSaturation}</div>
    </text>
    <code>
      <coding>
        <system value="http://loinc.org"/>
        <code value="2710-2"/>
        <display value="oxygen_saturation"/>
      </coding>
    </code>
    <valueQuantity>
      <value value="97.0"/>
      <unit value="%{HemoglobinSaturation}"/>
      <system value="http://unitsofmeasure.org" />
      <code value="%{HemoglobinSaturation}"/>
    </valueQuantity>
    
    <effectiveDateTime value="2003-06-09"/>
    <status value="final"/>
    <reliability value="ok"/>
    <subject>
      <reference value="Patient/ID1213208"/>
    </subject>
    <encounter>
      <reference value="Encounter/ID381-e"/>
    </encounter>
    
  </Observation>
  
  </resource>
  <request>
    <method value="PUT"/>
    <url value="Observation/ID381-oxygensaturation"/>
  </request>
</entry>
<entry>
  <resource>
    
    
  <Observation>
  <id value="ID382-height"/>
    <text>
      <status value="generated"/>
      <div xmlns="http://www.w3.org/1999/xhtml">2003-07-03: height = 162.306 cm</div>
    </text>
    <code>
      <coding>
        <system value="http://loinc.org"/>
        <code value="8302-2"/>
        <display value="height"/>
      </coding>
    </code>
    <valueQuantity>
      <value value="162.306"/>
      <unit value="cm"/>
      <system value="http://unitsofmeasure.org" />
      <code value="cm"/>
    </valueQuantity>
    
    <effectiveDateTime value="2003-07-03"/>
    <status value="final"/>
    <reliability value="ok"/>
    <subject>
      <reference value="Patient/ID1213208"/>
    </subject>
    <encounter>
      <reference value="Encounter/ID382-e"/>
    </encounter>
    
  </Observation>
  
  </resource>
  <request>
    <method value="PUT"/>
    <url value="Observation/ID382-height"/>
  </request>
</entry>
<entry>
  <resource>
    
    
  <Observation>
  <id value="ID382-heartrate"/>
    <text>
      <status value="generated"/>
      <div xmlns="http://www.w3.org/1999/xhtml">2003-07-03: heart_rate = 78.0 {beats}/min</div>
    </text>
    <code>
      <coding>
        <system value="http://loinc.org"/>
        <code value="8867-4"/>
        <display value="heart_rate"/>
      </coding>
    </code>
    <valueQuantity>
      <value value="78.0"/>
      <unit value="{beats}/min"/>
      <system value="http://unitsofmeasure.org" />
      <code value="{beats}/min"/>
    </valueQuantity>
    
    <effectiveDateTime value="2003-07-03"/>
    <status value="final"/>
    <reliability value="ok"/>
    <subject>
      <reference value="Patient/ID1213208"/>
    </subject>
    <encounter>
      <reference value="Encounter/ID382-e"/>
    </encounter>
    
  </Observation>
  
  </resource>
  <request>
    <method value="PUT"/>
    <url value="Observation/ID382-heartrate"/>
  </request>
</entry>
<entry>
  <resource>
    
    
  <Observation>
  <id value="ID382-respiratoryrate"/>
    <text>
      <status value="generated"/>
      <div xmlns="http://www.w3.org/1999/xhtml">2003-07-03: respiratory_rate = 14.0 {breaths}/min</div>
    </text>
    <code>
      <coding>
        <system value="http://loinc.org"/>
        <code value="9279-1"/>
        <display value="respiratory_rate"/>
      </coding>
    </code>
    <valueQuantity>
      <value value="14.0"/>
      <unit value="{breaths}/min"/>
      <system value="http://unitsofmeasure.org" />
      <code value="{breaths}/min"/>
    </valueQuantity>
    
    <effectiveDateTime value="2003-07-03"/>
    <status value="final"/>
    <reliability value="ok"/>
    <subject>
      <reference value="Patient/ID1213208"/>
    </subject>
    <encounter>
      <reference value="Encounter/ID382-e"/>
    </encounter>
    
  </Observation>
  
  </resource>
  <request>
    <method value="PUT"/>
    <url value="Observation/ID382-respiratoryrate"/>
  </request>
</entry>
<entry>
  <resource>
    
    
  <Observation>
  <id value="ID382-temperature"/>
    <text>
      <status value="generated"/>
      <div xmlns="http://www.w3.org/1999/xhtml">2003-07-03: temperature = 36.77778 Cel</div>
    </text>
    <code>
      <coding>
        <system value="http://loinc.org"/>
        <code value="8310-5"/>
        <display value="temperature"/>
      </coding>
    </code>
    <valueQuantity>
      <value value="36.77778"/>
      <unit value="Cel"/>
      <system value="http://unitsofmeasure.org" />
      <code value="Cel"/>
    </valueQuantity>
    
    <effectiveDateTime value="2003-07-03"/>
    <status value="final"/>
    <reliability value="ok"/>
    <subject>
      <reference value="Patient/ID1213208"/>
    </subject>
    <encounter>
      <reference value="Encounter/ID382-e"/>
    </encounter>
    
  </Observation>
  
  </resource>
  <request>
    <method value="PUT"/>
    <url value="Observation/ID382-temperature"/>
  </request>
</entry>
<entry>
  <resource>
    
    
  <Observation>
  <id value="ID382-weight"/>
    <text>
      <status value="generated"/>
      <div xmlns="http://www.w3.org/1999/xhtml">2003-07-03: weight = 110.22295 kg</div>
    </text>
    <code>
      <coding>
        <system value="http://loinc.org"/>
        <code value="3141-9"/>
        <display value="weight"/>
      </coding>
    </code>
    <valueQuantity>
      <value value="110.22295"/>
      <unit value="kg"/>
      <system value="http://unitsofmeasure.org" />
      <code value="kg"/>
    </valueQuantity>
    
    <effectiveDateTime value="2003-07-03"/>
    <status value="final"/>
    <reliability value="ok"/>
    <subject>
      <reference value="Patient/ID1213208"/>
    </subject>
    <encounter>
      <reference value="Encounter/ID382-e"/>
    </encounter>
    
  </Observation>
  
  </resource>
  <request>
    <method value="PUT"/>
    <url value="Observation/ID382-weight"/>
  </request>
</entry>
<entry>
  <resource>
    
    
  <Observation>
  <id value="ID382-bmi"/>
    <text>
      <status value="generated"/>
      <div xmlns="http://www.w3.org/1999/xhtml">2003-07-03: bmi = 41.8 kg/m2</div>
    </text>
    <code>
      <coding>
        <system value="http://loinc.org"/>
        <code value="39156-5"/>
        <display value="bmi"/>
      </coding>
    </code>
    <valueQuantity>
      <value value="41.8"/>
      <unit value="kg/m2"/>
      <system value="http://unitsofmeasure.org" />
      <code value="kg/m2"/>
    </valueQuantity>
    
    <effectiveDateTime value="2003-07-03"/>
    <status value="final"/>
    <reliability value="ok"/>
    <subject>
      <reference value="Patient/ID1213208"/>
    </subject>
    <encounter>
      <reference value="Encounter/ID382-e"/>
    </encounter>
    
  </Observation>
  
  </resource>
  <request>
    <method value="PUT"/>
    <url value="Observation/ID382-bmi"/>
  </request>
</entry>
<entry>
  <resource>
    
    
  <Observation>
  <id value="ID382-oxygensaturation"/>
    <text>
      <status value="generated"/>
      <div xmlns="http://www.w3.org/1999/xhtml">2003-07-03: oxygen_saturation = 97.0 %{HemoglobinSaturation}</div>
    </text>
    <code>
      <coding>
        <system value="http://loinc.org"/>
        <code value="2710-2"/>
        <display value="oxygen_saturation"/>
      </coding>
    </code>
    <valueQuantity>
      <value value="97.0"/>
      <unit value="%{HemoglobinSaturation}"/>
      <system value="http://unitsofmeasure.org" />
      <code value="%{HemoglobinSaturation}"/>
    </valueQuantity>
    
    <effectiveDateTime value="2003-07-03"/>
    <status value="final"/>
    <reliability value="ok"/>
    <subject>
      <reference value="Patient/ID1213208"/>
    </subject>
    <encounter>
      <reference value="Encounter/ID382-e"/>
    </encounter>
    
  </Observation>
  
  </resource>
  <request>
    <method value="PUT"/>
    <url value="Observation/ID382-oxygensaturation"/>
  </request>
</entry>
<entry>
  <resource>
    
    
  <Observation>
  <id value="ID383-height"/>
    <text>
      <status value="generated"/>
      <div xmlns="http://www.w3.org/1999/xhtml">2003-07-23: height = 161.798 cm</div>
    </text>
    <code>
      <coding>
        <system value="http://loinc.org"/>
        <code value="8302-2"/>
        <display value="height"/>
      </coding>
    </code>
    <valueQuantity>
      <value value="161.798"/>
      <unit value="cm"/>
      <system value="http://unitsofmeasure.org" />
      <code value="cm"/>
    </valueQuantity>
    
    <effectiveDateTime value="2003-07-23"/>
    <status value="final"/>
    <reliability value="ok"/>
    <subject>
      <reference value="Patient/ID1213208"/>
    </subject>
    <encounter>
      <reference value="Encounter/ID383-e"/>
    </encounter>
    
  </Observation>
  
  </resource>
  <request>
    <method value="PUT"/>
    <url value="Observation/ID383-height"/>
  </request>
</entry>
<entry>
  <resource>
    
    
  <Observation>
  <id value="ID383-heartrate"/>
    <text>
      <status value="generated"/>
      <div xmlns="http://www.w3.org/1999/xhtml">2003-07-23: heart_rate = 70.0 {beats}/min</div>
    </text>
    <code>
      <coding>
        <system value="http://loinc.org"/>
        <code value="8867-4"/>
        <display value="heart_rate"/>
      </coding>
    </code>
    <valueQuantity>
      <value value="70.0"/>
      <unit value="{beats}/min"/>
      <system value="http://unitsofmeasure.org" />
      <code value="{beats}/min"/>
    </valueQuantity>
    
    <effectiveDateTime value="2003-07-23"/>
    <status value="final"/>
    <reliability value="ok"/>
    <subject>
      <reference value="Patient/ID1213208"/>
    </subject>
    <encounter>
      <reference value="Encounter/ID383-e"/>
    </encounter>
    
  </Observation>
  
  </resource>
  <request>
    <method value="PUT"/>
    <url value="Observation/ID383-heartrate"/>
  </request>
</entry>
<entry>
  <resource>
    
    
  <Observation>
  <id value="ID383-respiratoryrate"/>
    <text>
      <status value="generated"/>
      <div xmlns="http://www.w3.org/1999/xhtml">2003-07-23: respiratory_rate = 14.0 {breaths}/min</div>
    </text>
    <code>
      <coding>
        <system value="http://loinc.org"/>
        <code value="9279-1"/>
        <display value="respiratory_rate"/>
      </coding>
    </code>
    <valueQuantity>
      <value value="14.0"/>
      <unit value="{breaths}/min"/>
      <system value="http://unitsofmeasure.org" />
      <code value="{breaths}/min"/>
    </valueQuantity>
    
    <effectiveDateTime value="2003-07-23"/>
    <status value="final"/>
    <reliability value="ok"/>
    <subject>
      <reference value="Patient/ID1213208"/>
    </subject>
    <encounter>
      <reference value="Encounter/ID383-e"/>
    </encounter>
    
  </Observation>
  
  </resource>
  <request>
    <method value="PUT"/>
    <url value="Observation/ID383-respiratoryrate"/>
  </request>
</entry>
<entry>
  <resource>
    
    
  <Observation>
  <id value="ID383-temperature"/>
    <text>
      <status value="generated"/>
      <div xmlns="http://www.w3.org/1999/xhtml">2003-07-23: temperature = 36.77778 Cel</div>
    </text>
    <code>
      <coding>
        <system value="http://loinc.org"/>
        <code value="8310-5"/>
        <display value="temperature"/>
      </coding>
    </code>
    <valueQuantity>
      <value value="36.77778"/>
      <unit value="Cel"/>
      <system value="http://unitsofmeasure.org" />
      <code value="Cel"/>
    </valueQuantity>
    
    <effectiveDateTime value="2003-07-23"/>
    <status value="final"/>
    <reliability value="ok"/>
    <subject>
      <reference value="Patient/ID1213208"/>
    </subject>
    <encounter>
      <reference value="Encounter/ID383-e"/>
    </encounter>
    
  </Observation>
  
  </resource>
  <request>
    <method value="PUT"/>
    <url value="Observation/ID383-temperature"/>
  </request>
</entry>
<entry>
  <resource>
    
    
  <Observation>
  <id value="ID383-weight"/>
    <text>
      <status value="generated"/>
      <div xmlns="http://www.w3.org/1999/xhtml">2003-07-23: weight = 114.03312 kg</div>
    </text>
    <code>
      <coding>
        <system value="http://loinc.org"/>
        <code value="3141-9"/>
        <display value="weight"/>
      </coding>
    </code>
    <valueQuantity>
      <value value="114.03312"/>
      <unit value="kg"/>
      <system value="http://unitsofmeasure.org" />
      <code value="kg"/>
    </valueQuantity>
    
    <effectiveDateTime value="2003-07-23"/>
    <status value="final"/>
    <reliability value="ok"/>
    <subject>
      <reference value="Patient/ID1213208"/>
    </subject>
    <encounter>
      <reference value="Encounter/ID383-e"/>
    </encounter>
    
  </Observation>
  
  </resource>
  <request>
    <method value="PUT"/>
    <url value="Observation/ID383-weight"/>
  </request>
</entry>
<entry>
  <resource>
    
    
  <Observation>
  <id value="ID383-bmi"/>
    <text>
      <status value="generated"/>
      <div xmlns="http://www.w3.org/1999/xhtml">2003-07-23: bmi = 43.5 kg/m2</div>
    </text>
    <code>
      <coding>
        <system value="http://loinc.org"/>
        <code value="39156-5"/>
        <display value="bmi"/>
      </coding>
    </code>
    <valueQuantity>
      <value value="43.5"/>
      <unit value="kg/m2"/>
      <system value="http://unitsofmeasure.org" />
      <code value="kg/m2"/>
    </valueQuantity>
    
    <effectiveDateTime value="2003-07-23"/>
    <status value="final"/>
    <reliability value="ok"/>
    <subject>
      <reference value="Patient/ID1213208"/>
    </subject>
    <encounter>
      <reference value="Encounter/ID383-e"/>
    </encounter>
    
  </Observation>
  
  </resource>
  <request>
    <method value="PUT"/>
    <url value="Observation/ID383-bmi"/>
  </request>
</entry>
<entry>
  <resource>
    
    
  <Observation>
  <id value="ID383-oxygensaturation"/>
    <text>
      <status value="generated"/>
      <div xmlns="http://www.w3.org/1999/xhtml">2003-07-23: oxygen_saturation = 97.0 %{HemoglobinSaturation}</div>
    </text>
    <code>
      <coding>
        <system value="http://loinc.org"/>
        <code value="2710-2"/>
        <display value="oxygen_saturation"/>
      </coding>
    </code>
    <valueQuantity>
      <value value="97.0"/>
      <unit value="%{HemoglobinSaturation}"/>
      <system value="http://unitsofmeasure.org" />
      <code value="%{HemoglobinSaturation}"/>
    </valueQuantity>
    
    <effectiveDateTime value="2003-07-23"/>
    <status value="final"/>
    <reliability value="ok"/>
    <subject>
      <reference value="Patient/ID1213208"/>
    </subject>
    <encounter>
      <reference value="Encounter/ID383-e"/>
    </encounter>
    
  </Observation>
  
  </resource>
  <request>
    <method value="PUT"/>
    <url value="Observation/ID383-oxygensaturation"/>
  </request>
</entry>
<entry>
  <resource>
    
    
  <Observation>
  <id value="ID384-height"/>
    <text>
      <status value="generated"/>
      <div xmlns="http://www.w3.org/1999/xhtml">2003-07-24: height = 161.544 cm</div>
    </text>
    <code>
      <coding>
        <system value="http://loinc.org"/>
        <code value="8302-2"/>
        <display value="height"/>
      </coding>
    </code>
    <valueQuantity>
      <value value="161.544"/>
      <unit value="cm"/>
      <system value="http://unitsofmeasure.org" />
      <code value="cm"/>
    </valueQuantity>
    
    <effectiveDateTime value="2003-07-24"/>
    <status value="final"/>
    <reliability value="ok"/>
    <subject>
      <reference value="Patient/ID1213208"/>
    </subject>
    <encounter>
      <reference value="Encounter/ID384-e"/>
    </encounter>
    
  </Observation>
  
  </resource>
  <request>
    <method value="PUT"/>
    <url value="Observation/ID384-height"/>
  </request>
</entry>
<entry>
  <resource>
    
    
  <Observation>
  <id value="ID384-heartrate"/>
    <text>
      <status value="generated"/>
      <div xmlns="http://www.w3.org/1999/xhtml">2003-07-24: heart_rate = 69.0 {beats}/min</div>
    </text>
    <code>
      <coding>
        <system value="http://loinc.org"/>
        <code value="8867-4"/>
        <display value="heart_rate"/>
      </coding>
    </code>
    <valueQuantity>
      <value value="69.0"/>
      <unit value="{beats}/min"/>
      <system value="http://unitsofmeasure.org" />
      <code value="{beats}/min"/>
    </valueQuantity>
    
    <effectiveDateTime value="2003-07-24"/>
    <status value="final"/>
    <reliability value="ok"/>
    <subject>
      <reference value="Patient/ID1213208"/>
    </subject>
    <encounter>
      <reference value="Encounter/ID384-e"/>
    </encounter>
    
  </Observation>
  
  </resource>
  <request>
    <method value="PUT"/>
    <url value="Observation/ID384-heartrate"/>
  </request>
</entry>
<entry>
  <resource>
    
    
  <Observation>
  <id value="ID384-respiratoryrate"/>
    <text>
      <status value="generated"/>
      <div xmlns="http://www.w3.org/1999/xhtml">2003-07-24: respiratory_rate = 14.0 {breaths}/min</div>
    </text>
    <code>
      <coding>
        <system value="http://loinc.org"/>
        <code value="9279-1"/>
        <display value="respiratory_rate"/>
      </coding>
    </code>
    <valueQuantity>
      <value value="14.0"/>
      <unit value="{breaths}/min"/>
      <system value="http://unitsofmeasure.org" />
      <code value="{breaths}/min"/>
    </valueQuantity>
    
    <effectiveDateTime value="2003-07-24"/>
    <status value="final"/>
    <reliability value="ok"/>
    <subject>
      <reference value="Patient/ID1213208"/>
    </subject>
    <encounter>
      <reference value="Encounter/ID384-e"/>
    </encounter>
    
  </Observation>
  
  </resource>
  <request>
    <method value="PUT"/>
    <url value="Observation/ID384-respiratoryrate"/>
  </request>
</entry>
<entry>
  <resource>
    
    
  <Observation>
  <id value="ID384-temperature"/>
    <text>
      <status value="generated"/>
      <div xmlns="http://www.w3.org/1999/xhtml">2003-07-24: temperature = 36.77778 Cel</div>
    </text>
    <code>
      <coding>
        <system value="http://loinc.org"/>
        <code value="8310-5"/>
        <display value="temperature"/>
      </coding>
    </code>
    <valueQuantity>
      <value value="36.77778"/>
      <unit value="Cel"/>
      <system value="http://unitsofmeasure.org" />
      <code value="Cel"/>
    </valueQuantity>
    
    <effectiveDateTime value="2003-07-24"/>
    <status value="final"/>
    <reliability value="ok"/>
    <subject>
      <reference value="Patient/ID1213208"/>
    </subject>
    <encounter>
      <reference value="Encounter/ID384-e"/>
    </encounter>
    
  </Observation>
  
  </resource>
  <request>
    <method value="PUT"/>
    <url value="Observation/ID384-temperature"/>
  </request>
</entry>
<entry>
  <resource>
    
    
  <Observation>
  <id value="ID384-weight"/>
    <text>
      <status value="generated"/>
      <div xmlns="http://www.w3.org/1999/xhtml">2003-07-24: weight = 109.40648 kg</div>
    </text>
    <code>
      <coding>
        <system value="http://loinc.org"/>
        <code value="3141-9"/>
        <display value="weight"/>
      </coding>
    </code>
    <valueQuantity>
      <value value="109.40648"/>
      <unit value="kg"/>
      <system value="http://unitsofmeasure.org" />
      <code value="kg"/>
    </valueQuantity>
    
    <effectiveDateTime value="2003-07-24"/>
    <status value="final"/>
    <reliability value="ok"/>
    <subject>
      <reference value="Patient/ID1213208"/>
    </subject>
    <encounter>
      <reference value="Encounter/ID384-e"/>
    </encounter>
    
  </Observation>
  
  </resource>
  <request>
    <method value="PUT"/>
    <url value="Observation/ID384-weight"/>
  </request>
</entry>
<entry>
  <resource>
    
    
  <Observation>
  <id value="ID384-bmi"/>
    <text>
      <status value="generated"/>
      <div xmlns="http://www.w3.org/1999/xhtml">2003-07-24: bmi = 41.9 kg/m2</div>
    </text>
    <code>
      <coding>
        <system value="http://loinc.org"/>
        <code value="39156-5"/>
        <display value="bmi"/>
      </coding>
    </code>
    <valueQuantity>
      <value value="41.9"/>
      <unit value="kg/m2"/>
      <system value="http://unitsofmeasure.org" />
      <code value="kg/m2"/>
    </valueQuantity>
    
    <effectiveDateTime value="2003-07-24"/>
    <status value="final"/>
    <reliability value="ok"/>
    <subject>
      <reference value="Patient/ID1213208"/>
    </subject>
    <encounter>
      <reference value="Encounter/ID384-e"/>
    </encounter>
    
  </Observation>
  
  </resource>
  <request>
    <method value="PUT"/>
    <url value="Observation/ID384-bmi"/>
  </request>
</entry>
<entry>
  <resource>
    
    
  <Observation>
  <id value="ID384-oxygensaturation"/>
    <text>
      <status value="generated"/>
      <div xmlns="http://www.w3.org/1999/xhtml">2003-07-24: oxygen_saturation = 97.0 %{HemoglobinSaturation}</div>
    </text>
    <code>
      <coding>
        <system value="http://loinc.org"/>
        <code value="2710-2"/>
        <display value="oxygen_saturation"/>
      </coding>
    </code>
    <valueQuantity>
      <value value="97.0"/>
      <unit value="%{HemoglobinSaturation}"/>
      <system value="http://unitsofmeasure.org" />
      <code value="%{HemoglobinSaturation}"/>
    </valueQuantity>
    
    <effectiveDateTime value="2003-07-24"/>
    <status value="final"/>
    <reliability value="ok"/>
    <subject>
      <reference value="Patient/ID1213208"/>
    </subject>
    <encounter>
      <reference value="Encounter/ID384-e"/>
    </encounter>
    
  </Observation>
  
  </resource>
  <request>
    <method value="PUT"/>
    <url value="Observation/ID384-oxygensaturation"/>
  </request>
</entry>
<entry>
  <resource>
    
    
  <Observation>
  <id value="ID385-height"/>
    <text>
      <status value="generated"/>
      <div xmlns="http://www.w3.org/1999/xhtml">2003-08-11: height = 161.036 cm</div>
    </text>
    <code>
      <coding>
        <system value="http://loinc.org"/>
        <code value="8302-2"/>
        <display value="height"/>
      </coding>
    </code>
    <valueQuantity>
      <value value="161.036"/>
      <unit value="cm"/>
      <system value="http://unitsofmeasure.org" />
      <code value="cm"/>
    </valueQuantity>
    
    <effectiveDateTime value="2003-08-11"/>
    <status value="final"/>
    <reliability value="ok"/>
    <subject>
      <reference value="Patient/ID1213208"/>
    </subject>
    <encounter>
      <reference value="Encounter/ID385-e"/>
    </encounter>
    
  </Observation>
  
  </resource>
  <request>
    <method value="PUT"/>
    <url value="Observation/ID385-height"/>
  </request>
</entry>
<entry>
  <resource>
    
    
  <Observation>
  <id value="ID385-heartrate"/>
    <text>
      <status value="generated"/>
      <div xmlns="http://www.w3.org/1999/xhtml">2003-08-11: heart_rate = 72.0 {beats}/min</div>
    </text>
    <code>
      <coding>
        <system value="http://loinc.org"/>
        <code value="8867-4"/>
        <display value="heart_rate"/>
      </coding>
    </code>
    <valueQuantity>
      <value value="72.0"/>
      <unit value="{beats}/min"/>
      <system value="http://unitsofmeasure.org" />
      <code value="{beats}/min"/>
    </valueQuantity>
    
    <effectiveDateTime value="2003-08-11"/>
    <status value="final"/>
    <reliability value="ok"/>
    <subject>
      <reference value="Patient/ID1213208"/>
    </subject>
    <encounter>
      <reference value="Encounter/ID385-e"/>
    </encounter>
    
  </Observation>
  
  </resource>
  <request>
    <method value="PUT"/>
    <url value="Observation/ID385-heartrate"/>
  </request>
</entry>
<entry>
  <resource>
    
    
  <Observation>
  <id value="ID385-respiratoryrate"/>
    <text>
      <status value="generated"/>
      <div xmlns="http://www.w3.org/1999/xhtml">2003-08-11: respiratory_rate = 14.0 {breaths}/min</div>
    </text>
    <code>
      <coding>
        <system value="http://loinc.org"/>
        <code value="9279-1"/>
        <display value="respiratory_rate"/>
      </coding>
    </code>
    <valueQuantity>
      <value value="14.0"/>
      <unit value="{breaths}/min"/>
      <system value="http://unitsofmeasure.org" />
      <code value="{breaths}/min"/>
    </valueQuantity>
    
    <effectiveDateTime value="2003-08-11"/>
    <status value="final"/>
    <reliability value="ok"/>
    <subject>
      <reference value="Patient/ID1213208"/>
    </subject>
    <encounter>
      <reference value="Encounter/ID385-e"/>
    </encounter>
    
  </Observation>
  
  </resource>
  <request>
    <method value="PUT"/>
    <url value="Observation/ID385-respiratoryrate"/>
  </request>
</entry>
<entry>
  <resource>
    
    
  <Observation>
  <id value="ID385-temperature"/>
    <text>
      <status value="generated"/>
      <div xmlns="http://www.w3.org/1999/xhtml">2003-08-11: temperature = 36.77778 Cel</div>
    </text>
    <code>
      <coding>
        <system value="http://loinc.org"/>
        <code value="8310-5"/>
        <display value="temperature"/>
      </coding>
    </code>
    <valueQuantity>
      <value value="36.77778"/>
      <unit value="Cel"/>
      <system value="http://unitsofmeasure.org" />
      <code value="Cel"/>
    </valueQuantity>
    
    <effectiveDateTime value="2003-08-11"/>
    <status value="final"/>
    <reliability value="ok"/>
    <subject>
      <reference value="Patient/ID1213208"/>
    </subject>
    <encounter>
      <reference value="Encounter/ID385-e"/>
    </encounter>
    
  </Observation>
  
  </resource>
  <request>
    <method value="PUT"/>
    <url value="Observation/ID385-temperature"/>
  </request>
</entry>
<entry>
  <resource>
    
    
  <Observation>
  <id value="ID385-weight"/>
    <text>
      <status value="generated"/>
      <div xmlns="http://www.w3.org/1999/xhtml">2003-08-11: weight = 116.57324 kg</div>
    </text>
    <code>
      <coding>
        <system value="http://loinc.org"/>
        <code value="3141-9"/>
        <display value="weight"/>
      </coding>
    </code>
    <valueQuantity>
      <value value="116.57324"/>
      <unit value="kg"/>
      <system value="http://unitsofmeasure.org" />
      <code value="kg"/>
    </valueQuantity>
    
    <effectiveDateTime value="2003-08-11"/>
    <status value="final"/>
    <reliability value="ok"/>
    <subject>
      <reference value="Patient/ID1213208"/>
    </subject>
    <encounter>
      <reference value="Encounter/ID385-e"/>
    </encounter>
    
  </Observation>
  
  </resource>
  <request>
    <method value="PUT"/>
    <url value="Observation/ID385-weight"/>
  </request>
</entry>
<entry>
  <resource>
    
    
  <Observation>
  <id value="ID385-bmi"/>
    <text>
      <status value="generated"/>
      <div xmlns="http://www.w3.org/1999/xhtml">2003-08-11: bmi = 44.9 kg/m2</div>
    </text>
    <code>
      <coding>
        <system value="http://loinc.org"/>
        <code value="39156-5"/>
        <display value="bmi"/>
      </coding>
    </code>
    <valueQuantity>
      <value value="44.9"/>
      <unit value="kg/m2"/>
      <system value="http://unitsofmeasure.org" />
      <code value="kg/m2"/>
    </valueQuantity>
    
    <effectiveDateTime value="2003-08-11"/>
    <status value="final"/>
    <reliability value="ok"/>
    <subject>
      <reference value="Patient/ID1213208"/>
    </subject>
    <encounter>
      <reference value="Encounter/ID385-e"/>
    </encounter>
    
  </Observation>
  
  </resource>
  <request>
    <method value="PUT"/>
    <url value="Observation/ID385-bmi"/>
  </request>
</entry>
<entry>
  <resource>
    
    
  <Observation>
  <id value="ID385-oxygensaturation"/>
    <text>
      <status value="generated"/>
      <div xmlns="http://www.w3.org/1999/xhtml">2003-08-11: oxygen_saturation = 97.0 %{HemoglobinSaturation}</div>
    </text>
    <code>
      <coding>
        <system value="http://loinc.org"/>
        <code value="2710-2"/>
        <display value="oxygen_saturation"/>
      </coding>
    </code>
    <valueQuantity>
      <value value="97.0"/>
      <unit value="%{HemoglobinSaturation}"/>
      <system value="http://unitsofmeasure.org" />
      <code value="%{HemoglobinSaturation}"/>
    </valueQuantity>
    
    <effectiveDateTime value="2003-08-11"/>
    <status value="final"/>
    <reliability value="ok"/>
    <subject>
      <reference value="Patient/ID1213208"/>
    </subject>
    <encounter>
      <reference value="Encounter/ID385-e"/>
    </encounter>
    
  </Observation>
  
  </resource>
  <request>
    <method value="PUT"/>
    <url value="Observation/ID385-oxygensaturation"/>
  </request>
</entry>
<entry>
  <resource>
    
    
  <Observation>
  <id value="ID386-height"/>
    <text>
      <status value="generated"/>
      <div xmlns="http://www.w3.org/1999/xhtml">2003-08-12: height = 162.052 cm</div>
    </text>
    <code>
      <coding>
        <system value="http://loinc.org"/>
        <code value="8302-2"/>
        <display value="height"/>
      </coding>
    </code>
    <valueQuantity>
      <value value="162.052"/>
      <unit value="cm"/>
      <system value="http://unitsofmeasure.org" />
      <code value="cm"/>
    </valueQuantity>
    
    <effectiveDateTime value="2003-08-12"/>
    <status value="final"/>
    <reliability value="ok"/>
    <subject>
      <reference value="Patient/ID1213208"/>
    </subject>
    <encounter>
      <reference value="Encounter/ID386-e"/>
    </encounter>
    
  </Observation>
  
  </resource>
  <request>
    <method value="PUT"/>
    <url value="Observation/ID386-height"/>
  </request>
</entry>
<entry>
  <resource>
    
    
  <Observation>
  <id value="ID386-heartrate"/>
    <text>
      <status value="generated"/>
      <div xmlns="http://www.w3.org/1999/xhtml">2003-08-12: heart_rate = 78.0 {beats}/min</div>
    </text>
    <code>
      <coding>
        <system value="http://loinc.org"/>
        <code value="8867-4"/>
        <display value="heart_rate"/>
      </coding>
    </code>
    <valueQuantity>
      <value value="78.0"/>
      <unit value="{beats}/min"/>
      <system value="http://unitsofmeasure.org" />
      <code value="{beats}/min"/>
    </valueQuantity>
    
    <effectiveDateTime value="2003-08-12"/>
    <status value="final"/>
    <reliability value="ok"/>
    <subject>
      <reference value="Patient/ID1213208"/>
    </subject>
    <encounter>
      <reference value="Encounter/ID386-e"/>
    </encounter>
    
  </Observation>
  
  </resource>
  <request>
    <method value="PUT"/>
    <url value="Observation/ID386-heartrate"/>
  </request>
</entry>
<entry>
  <resource>
    
    
  <Observation>
  <id value="ID386-respiratoryrate"/>
    <text>
      <status value="generated"/>
      <div xmlns="http://www.w3.org/1999/xhtml">2003-08-12: respiratory_rate = 14.0 {breaths}/min</div>
    </text>
    <code>
      <coding>
        <system value="http://loinc.org"/>
        <code value="9279-1"/>
        <display value="respiratory_rate"/>
      </coding>
    </code>
    <valueQuantity>
      <value value="14.0"/>
      <unit value="{breaths}/min"/>
      <system value="http://unitsofmeasure.org" />
      <code value="{breaths}/min"/>
    </valueQuantity>
    
    <effectiveDateTime value="2003-08-12"/>
    <status value="final"/>
    <reliability value="ok"/>
    <subject>
      <reference value="Patient/ID1213208"/>
    </subject>
    <encounter>
      <reference value="Encounter/ID386-e"/>
    </encounter>
    
  </Observation>
  
  </resource>
  <request>
    <method value="PUT"/>
    <url value="Observation/ID386-respiratoryrate"/>
  </request>
</entry>
<entry>
  <resource>
    
    
  <Observation>
  <id value="ID386-temperature"/>
    <text>
      <status value="generated"/>
      <div xmlns="http://www.w3.org/1999/xhtml">2003-08-12: temperature = 36.77778 Cel</div>
    </text>
    <code>
      <coding>
        <system value="http://loinc.org"/>
        <code value="8310-5"/>
        <display value="temperature"/>
      </coding>
    </code>
    <valueQuantity>
      <value value="36.77778"/>
      <unit value="Cel"/>
      <system value="http://unitsofmeasure.org" />
      <code value="Cel"/>
    </valueQuantity>
    
    <effectiveDateTime value="2003-08-12"/>
    <status value="final"/>
    <reliability value="ok"/>
    <subject>
      <reference value="Patient/ID1213208"/>
    </subject>
    <encounter>
      <reference value="Encounter/ID386-e"/>
    </encounter>
    
  </Observation>
  
  </resource>
  <request>
    <method value="PUT"/>
    <url value="Observation/ID386-temperature"/>
  </request>
</entry>
<entry>
  <resource>
    
    
  <Observation>
  <id value="ID386-weight"/>
    <text>
      <status value="generated"/>
      <div xmlns="http://www.w3.org/1999/xhtml">2003-08-12: weight = 117.11755 kg</div>
    </text>
    <code>
      <coding>
        <system value="http://loinc.org"/>
        <code value="3141-9"/>
        <display value="weight"/>
      </coding>
    </code>
    <valueQuantity>
      <value value="117.11755"/>
      <unit value="kg"/>
      <system value="http://unitsofmeasure.org" />
      <code value="kg"/>
    </valueQuantity>
    
    <effectiveDateTime value="2003-08-12"/>
    <status value="final"/>
    <reliability value="ok"/>
    <subject>
      <reference value="Patient/ID1213208"/>
    </subject>
    <encounter>
      <reference value="Encounter/ID386-e"/>
    </encounter>
    
  </Observation>
  
  </resource>
  <request>
    <method value="PUT"/>
    <url value="Observation/ID386-weight"/>
  </request>
</entry>
<entry>
  <resource>
    
    
  <Observation>
  <id value="ID386-bmi"/>
    <text>
      <status value="generated"/>
      <div xmlns="http://www.w3.org/1999/xhtml">2003-08-12: bmi = 44.6 kg/m2</div>
    </text>
    <code>
      <coding>
        <system value="http://loinc.org"/>
        <code value="39156-5"/>
        <display value="bmi"/>
      </coding>
    </code>
    <valueQuantity>
      <value value="44.6"/>
      <unit value="kg/m2"/>
      <system value="http://unitsofmeasure.org" />
      <code value="kg/m2"/>
    </valueQuantity>
    
    <effectiveDateTime value="2003-08-12"/>
    <status value="final"/>
    <reliability value="ok"/>
    <subject>
      <reference value="Patient/ID1213208"/>
    </subject>
    <encounter>
      <reference value="Encounter/ID386-e"/>
    </encounter>
    
  </Observation>
  
  </resource>
  <request>
    <method value="PUT"/>
    <url value="Observation/ID386-bmi"/>
  </request>
</entry>
<entry>
  <resource>
    
    
  <Observation>
  <id value="ID386-oxygensaturation"/>
    <text>
      <status value="generated"/>
      <div xmlns="http://www.w3.org/1999/xhtml">2003-08-12: oxygen_saturation = 97.0 %{HemoglobinSaturation}</div>
    </text>
    <code>
      <coding>
        <system value="http://loinc.org"/>
        <code value="2710-2"/>
        <display value="oxygen_saturation"/>
      </coding>
    </code>
    <valueQuantity>
      <value value="97.0"/>
      <unit value="%{HemoglobinSaturation}"/>
      <system value="http://unitsofmeasure.org" />
      <code value="%{HemoglobinSaturation}"/>
    </valueQuantity>
    
    <effectiveDateTime value="2003-08-12"/>
    <status value="final"/>
    <reliability value="ok"/>
    <subject>
      <reference value="Patient/ID1213208"/>
    </subject>
    <encounter>
      <reference value="Encounter/ID386-e"/>
    </encounter>
    
  </Observation>
  
  </resource>
  <request>
    <method value="PUT"/>
    <url value="Observation/ID386-oxygensaturation"/>
  </request>
</entry>
<entry>
  <resource>
    
    
  <Observation>
  <id value="ID387-height"/>
    <text>
      <status value="generated"/>
      <div xmlns="http://www.w3.org/1999/xhtml">2003-09-03: height = 161.798 cm</div>
    </text>
    <code>
      <coding>
        <system value="http://loinc.org"/>
        <code value="8302-2"/>
        <display value="height"/>
      </coding>
    </code>
    <valueQuantity>
      <value value="161.798"/>
      <unit value="cm"/>
      <system value="http://unitsofmeasure.org" />
      <code value="cm"/>
    </valueQuantity>
    
    <effectiveDateTime value="2003-09-03"/>
    <status value="final"/>
    <reliability value="ok"/>
    <subject>
      <reference value="Patient/ID1213208"/>
    </subject>
    <encounter>
      <reference value="Encounter/ID387-e"/>
    </encounter>
    
  </Observation>
  
  </resource>
  <request>
    <method value="PUT"/>
    <url value="Observation/ID387-height"/>
  </request>
</entry>
<entry>
  <resource>
    
    
  <Observation>
  <id value="ID387-heartrate"/>
    <text>
      <status value="generated"/>
      <div xmlns="http://www.w3.org/1999/xhtml">2003-09-03: heart_rate = 78.0 {beats}/min</div>
    </text>
    <code>
      <coding>
        <system value="http://loinc.org"/>
        <code value="8867-4"/>
        <display value="heart_rate"/>
      </coding>
    </code>
    <valueQuantity>
      <value value="78.0"/>
      <unit value="{beats}/min"/>
      <system value="http://unitsofmeasure.org" />
      <code value="{beats}/min"/>
    </valueQuantity>
    
    <effectiveDateTime value="2003-09-03"/>
    <status value="final"/>
    <reliability value="ok"/>
    <subject>
      <reference value="Patient/ID1213208"/>
    </subject>
    <encounter>
      <reference value="Encounter/ID387-e"/>
    </encounter>
    
  </Observation>
  
  </resource>
  <request>
    <method value="PUT"/>
    <url value="Observation/ID387-heartrate"/>
  </request>
</entry>
<entry>
  <resource>
    
    
  <Observation>
  <id value="ID387-respiratoryrate"/>
    <text>
      <status value="generated"/>
      <div xmlns="http://www.w3.org/1999/xhtml">2003-09-03: respiratory_rate = 14.0 {breaths}/min</div>
    </text>
    <code>
      <coding>
        <system value="http://loinc.org"/>
        <code value="9279-1"/>
        <display value="respiratory_rate"/>
      </coding>
    </code>
    <valueQuantity>
      <value value="14.0"/>
      <unit value="{breaths}/min"/>
      <system value="http://unitsofmeasure.org" />
      <code value="{breaths}/min"/>
    </valueQuantity>
    
    <effectiveDateTime value="2003-09-03"/>
    <status value="final"/>
    <reliability value="ok"/>
    <subject>
      <reference value="Patient/ID1213208"/>
    </subject>
    <encounter>
      <reference value="Encounter/ID387-e"/>
    </encounter>
    
  </Observation>
  
  </resource>
  <request>
    <method value="PUT"/>
    <url value="Observation/ID387-respiratoryrate"/>
  </request>
</entry>
<entry>
  <resource>
    
    
  <Observation>
  <id value="ID387-temperature"/>
    <text>
      <status value="generated"/>
      <div xmlns="http://www.w3.org/1999/xhtml">2003-09-03: temperature = 36.77778 Cel</div>
    </text>
    <code>
      <coding>
        <system value="http://loinc.org"/>
        <code value="8310-5"/>
        <display value="temperature"/>
      </coding>
    </code>
    <valueQuantity>
      <value value="36.77778"/>
      <unit value="Cel"/>
      <system value="http://unitsofmeasure.org" />
      <code value="Cel"/>
    </valueQuantity>
    
    <effectiveDateTime value="2003-09-03"/>
    <status value="final"/>
    <reliability value="ok"/>
    <subject>
      <reference value="Patient/ID1213208"/>
    </subject>
    <encounter>
      <reference value="Encounter/ID387-e"/>
    </encounter>
    
  </Observation>
  
  </resource>
  <request>
    <method value="PUT"/>
    <url value="Observation/ID387-temperature"/>
  </request>
</entry>
<entry>
  <resource>
    
    
  <Observation>
  <id value="ID387-weight"/>
    <text>
      <status value="generated"/>
      <div xmlns="http://www.w3.org/1999/xhtml">2003-09-03: weight = 111.99196 kg</div>
    </text>
    <code>
      <coding>
        <system value="http://loinc.org"/>
        <code value="3141-9"/>
        <display value="weight"/>
      </coding>
    </code>
    <valueQuantity>
      <value value="111.99196"/>
      <unit value="kg"/>
      <system value="http://unitsofmeasure.org" />
      <code value="kg"/>
    </valueQuantity>
    
    <effectiveDateTime value="2003-09-03"/>
    <status value="final"/>
    <reliability value="ok"/>
    <subject>
      <reference value="Patient/ID1213208"/>
    </subject>
    <encounter>
      <reference value="Encounter/ID387-e"/>
    </encounter>
    
  </Observation>
  
  </resource>
  <request>
    <method value="PUT"/>
    <url value="Observation/ID387-weight"/>
  </request>
</entry>
<entry>
  <resource>
    
    
  <Observation>
  <id value="ID387-bmi"/>
    <text>
      <status value="generated"/>
      <div xmlns="http://www.w3.org/1999/xhtml">2003-09-03: bmi = 42.8 kg/m2</div>
    </text>
    <code>
      <coding>
        <system value="http://loinc.org"/>
        <code value="39156-5"/>
        <display value="bmi"/>
      </coding>
    </code>
    <valueQuantity>
      <value value="42.8"/>
      <unit value="kg/m2"/>
      <system value="http://unitsofmeasure.org" />
      <code value="kg/m2"/>
    </valueQuantity>
    
    <effectiveDateTime value="2003-09-03"/>
    <status value="final"/>
    <reliability value="ok"/>
    <subject>
      <reference value="Patient/ID1213208"/>
    </subject>
    <encounter>
      <reference value="Encounter/ID387-e"/>
    </encounter>
    
  </Observation>
  
  </resource>
  <request>
    <method value="PUT"/>
    <url value="Observation/ID387-bmi"/>
  </request>
</entry>
<entry>
  <resource>
    
    
  <Observation>
  <id value="ID387-oxygensaturation"/>
    <text>
      <status value="generated"/>
      <div xmlns="http://www.w3.org/1999/xhtml">2003-09-03: oxygen_saturation = 97.0 %{HemoglobinSaturation}</div>
    </text>
    <code>
      <coding>
        <system value="http://loinc.org"/>
        <code value="2710-2"/>
        <display value="oxygen_saturation"/>
      </coding>
    </code>
    <valueQuantity>
      <value value="97.0"/>
      <unit value="%{HemoglobinSaturation}"/>
      <system value="http://unitsofmeasure.org" />
      <code value="%{HemoglobinSaturation}"/>
    </valueQuantity>
    
    <effectiveDateTime value="2003-09-03"/>
    <status value="final"/>
    <reliability value="ok"/>
    <subject>
      <reference value="Patient/ID1213208"/>
    </subject>
    <encounter>
      <reference value="Encounter/ID387-e"/>
    </encounter>
    
  </Observation>
  
  </resource>
  <request>
    <method value="PUT"/>
    <url value="Observation/ID387-oxygensaturation"/>
  </request>
</entry>
<entry>
  <resource>
    
    
  <Observation>
  <id value="ID388-height"/>
    <text>
      <status value="generated"/>
      <div xmlns="http://www.w3.org/1999/xhtml">2003-09-04: height = 161.798 cm</div>
    </text>
    <code>
      <coding>
        <system value="http://loinc.org"/>
        <code value="8302-2"/>
        <display value="height"/>
      </coding>
    </code>
    <valueQuantity>
      <value value="161.798"/>
      <unit value="cm"/>
      <system value="http://unitsofmeasure.org" />
      <code value="cm"/>
    </valueQuantity>
    
    <effectiveDateTime value="2003-09-04"/>
    <status value="final"/>
    <reliability value="ok"/>
    <subject>
      <reference value="Patient/ID1213208"/>
    </subject>
    <encounter>
      <reference value="Encounter/ID388-e"/>
    </encounter>
    
  </Observation>
  
  </resource>
  <request>
    <method value="PUT"/>
    <url value="Observation/ID388-height"/>
  </request>
</entry>
<entry>
  <resource>
    
    
  <Observation>
  <id value="ID388-heartrate"/>
    <text>
      <status value="generated"/>
      <div xmlns="http://www.w3.org/1999/xhtml">2003-09-04: heart_rate = 81.0 {beats}/min</div>
    </text>
    <code>
      <coding>
        <system value="http://loinc.org"/>
        <code value="8867-4"/>
        <display value="heart_rate"/>
      </coding>
    </code>
    <valueQuantity>
      <value value="81.0"/>
      <unit value="{beats}/min"/>
      <system value="http://unitsofmeasure.org" />
      <code value="{beats}/min"/>
    </valueQuantity>
    
    <effectiveDateTime value="2003-09-04"/>
    <status value="final"/>
    <reliability value="ok"/>
    <subject>
      <reference value="Patient/ID1213208"/>
    </subject>
    <encounter>
      <reference value="Encounter/ID388-e"/>
    </encounter>
    
  </Observation>
  
  </resource>
  <request>
    <method value="PUT"/>
    <url value="Observation/ID388-heartrate"/>
  </request>
</entry>
<entry>
  <resource>
    
    
  <Observation>
  <id value="ID388-respiratoryrate"/>
    <text>
      <status value="generated"/>
      <div xmlns="http://www.w3.org/1999/xhtml">2003-09-04: respiratory_rate = 14.0 {breaths}/min</div>
    </text>
    <code>
      <coding>
        <system value="http://loinc.org"/>
        <code value="9279-1"/>
        <display value="respiratory_rate"/>
      </coding>
    </code>
    <valueQuantity>
      <value value="14.0"/>
      <unit value="{breaths}/min"/>
      <system value="http://unitsofmeasure.org" />
      <code value="{breaths}/min"/>
    </valueQuantity>
    
    <effectiveDateTime value="2003-09-04"/>
    <status value="final"/>
    <reliability value="ok"/>
    <subject>
      <reference value="Patient/ID1213208"/>
    </subject>
    <encounter>
      <reference value="Encounter/ID388-e"/>
    </encounter>
    
  </Observation>
  
  </resource>
  <request>
    <method value="PUT"/>
    <url value="Observation/ID388-respiratoryrate"/>
  </request>
</entry>
<entry>
  <resource>
    
    
  <Observation>
  <id value="ID388-temperature"/>
    <text>
      <status value="generated"/>
      <div xmlns="http://www.w3.org/1999/xhtml">2003-09-04: temperature = 36.77778 Cel</div>
    </text>
    <code>
      <coding>
        <system value="http://loinc.org"/>
        <code value="8310-5"/>
        <display value="temperature"/>
      </coding>
    </code>
    <valueQuantity>
      <value value="36.77778"/>
      <unit value="Cel"/>
      <system value="http://unitsofmeasure.org" />
      <code value="Cel"/>
    </valueQuantity>
    
    <effectiveDateTime value="2003-09-04"/>
    <status value="final"/>
    <reliability value="ok"/>
    <subject>
      <reference value="Patient/ID1213208"/>
    </subject>
    <encounter>
      <reference value="Encounter/ID388-e"/>
    </encounter>
    
  </Observation>
  
  </resource>
  <request>
    <method value="PUT"/>
    <url value="Observation/ID388-temperature"/>
  </request>
</entry>
<entry>
  <resource>
    
    
  <Observation>
  <id value="ID388-weight"/>
    <text>
      <status value="generated"/>
      <div xmlns="http://www.w3.org/1999/xhtml">2003-09-04: weight = 114.57743 kg</div>
    </text>
    <code>
      <coding>
        <system value="http://loinc.org"/>
        <code value="3141-9"/>
        <display value="weight"/>
      </coding>
    </code>
    <valueQuantity>
      <value value="114.57743"/>
      <unit value="kg"/>
      <system value="http://unitsofmeasure.org" />
      <code value="kg"/>
    </valueQuantity>
    
    <effectiveDateTime value="2003-09-04"/>
    <status value="final"/>
    <reliability value="ok"/>
    <subject>
      <reference value="Patient/ID1213208"/>
    </subject>
    <encounter>
      <reference value="Encounter/ID388-e"/>
    </encounter>
    
  </Observation>
  
  </resource>
  <request>
    <method value="PUT"/>
    <url value="Observation/ID388-weight"/>
  </request>
</entry>
<entry>
  <resource>
    
    
  <Observation>
  <id value="ID388-bmi"/>
    <text>
      <status value="generated"/>
      <div xmlns="http://www.w3.org/1999/xhtml">2003-09-04: bmi = 43.7 kg/m2</div>
    </text>
    <code>
      <coding>
        <system value="http://loinc.org"/>
        <code value="39156-5"/>
        <display value="bmi"/>
      </coding>
    </code>
    <valueQuantity>
      <value value="43.7"/>
      <unit value="kg/m2"/>
      <system value="http://unitsofmeasure.org" />
      <code value="kg/m2"/>
    </valueQuantity>
    
    <effectiveDateTime value="2003-09-04"/>
    <status value="final"/>
    <reliability value="ok"/>
    <subject>
      <reference value="Patient/ID1213208"/>
    </subject>
    <encounter>
      <reference value="Encounter/ID388-e"/>
    </encounter>
    
  </Observation>
  
  </resource>
  <request>
    <method value="PUT"/>
    <url value="Observation/ID388-bmi"/>
  </request>
</entry>
<entry>
  <resource>
    
    
  <Observation>
  <id value="ID388-oxygensaturation"/>
    <text>
      <status value="generated"/>
      <div xmlns="http://www.w3.org/1999/xhtml">2003-09-04: oxygen_saturation = 97.0 %{HemoglobinSaturation}</div>
    </text>
    <code>
      <coding>
        <system value="http://loinc.org"/>
        <code value="2710-2"/>
        <display value="oxygen_saturation"/>
      </coding>
    </code>
    <valueQuantity>
      <value value="97.0"/>
      <unit value="%{HemoglobinSaturation}"/>
      <system value="http://unitsofmeasure.org" />
      <code value="%{HemoglobinSaturation}"/>
    </valueQuantity>
    
    <effectiveDateTime value="2003-09-04"/>
    <status value="final"/>
    <reliability value="ok"/>
    <subject>
      <reference value="Patient/ID1213208"/>
    </subject>
    <encounter>
      <reference value="Encounter/ID388-e"/>
    </encounter>
    
  </Observation>
  
  </resource>
  <request>
    <method value="PUT"/>
    <url value="Observation/ID388-oxygensaturation"/>
  </request>
</entry>
<entry>
  <resource>
    
    
  <Observation>
  <id value="ID389-height"/>
    <text>
      <status value="generated"/>
      <div xmlns="http://www.w3.org/1999/xhtml">2003-09-05: height = 161.544 cm</div>
    </text>
    <code>
      <coding>
        <system value="http://loinc.org"/>
        <code value="8302-2"/>
        <display value="height"/>
      </coding>
    </code>
    <valueQuantity>
      <value value="161.544"/>
      <unit value="cm"/>
      <system value="http://unitsofmeasure.org" />
      <code value="cm"/>
    </valueQuantity>
    
    <effectiveDateTime value="2003-09-05"/>
    <status value="final"/>
    <reliability value="ok"/>
    <subject>
      <reference value="Patient/ID1213208"/>
    </subject>
    <encounter>
      <reference value="Encounter/ID389-e"/>
    </encounter>
    
  </Observation>
  
  </resource>
  <request>
    <method value="PUT"/>
    <url value="Observation/ID389-height"/>
  </request>
</entry>
<entry>
  <resource>
    
    
  <Observation>
  <id value="ID389-heartrate"/>
    <text>
      <status value="generated"/>
      <div xmlns="http://www.w3.org/1999/xhtml">2003-09-05: heart_rate = 70.0 {beats}/min</div>
    </text>
    <code>
      <coding>
        <system value="http://loinc.org"/>
        <code value="8867-4"/>
        <display value="heart_rate"/>
      </coding>
    </code>
    <valueQuantity>
      <value value="70.0"/>
      <unit value="{beats}/min"/>
      <system value="http://unitsofmeasure.org" />
      <code value="{beats}/min"/>
    </valueQuantity>
    
    <effectiveDateTime value="2003-09-05"/>
    <status value="final"/>
    <reliability value="ok"/>
    <subject>
      <reference value="Patient/ID1213208"/>
    </subject>
    <encounter>
      <reference value="Encounter/ID389-e"/>
    </encounter>
    
  </Observation>
  
  </resource>
  <request>
    <method value="PUT"/>
    <url value="Observation/ID389-heartrate"/>
  </request>
</entry>
<entry>
  <resource>
    
    
  <Observation>
  <id value="ID389-respiratoryrate"/>
    <text>
      <status value="generated"/>
      <div xmlns="http://www.w3.org/1999/xhtml">2003-09-05: respiratory_rate = 14.0 {breaths}/min</div>
    </text>
    <code>
      <coding>
        <system value="http://loinc.org"/>
        <code value="9279-1"/>
        <display value="respiratory_rate"/>
      </coding>
    </code>
    <valueQuantity>
      <value value="14.0"/>
      <unit value="{breaths}/min"/>
      <system value="http://unitsofmeasure.org" />
      <code value="{breaths}/min"/>
    </valueQuantity>
    
    <effectiveDateTime value="2003-09-05"/>
    <status value="final"/>
    <reliability value="ok"/>
    <subject>
      <reference value="Patient/ID1213208"/>
    </subject>
    <encounter>
      <reference value="Encounter/ID389-e"/>
    </encounter>
    
  </Observation>
  
  </resource>
  <request>
    <method value="PUT"/>
    <url value="Observation/ID389-respiratoryrate"/>
  </request>
</entry>
<entry>
  <resource>
    
    
  <Observation>
  <id value="ID389-temperature"/>
    <text>
      <status value="generated"/>
      <div xmlns="http://www.w3.org/1999/xhtml">2003-09-05: temperature = 36.77778 Cel</div>
    </text>
    <code>
      <coding>
        <system value="http://loinc.org"/>
        <code value="8310-5"/>
        <display value="temperature"/>
      </coding>
    </code>
    <valueQuantity>
      <value value="36.77778"/>
      <unit value="Cel"/>
      <system value="http://unitsofmeasure.org" />
      <code value="Cel"/>
    </valueQuantity>
    
    <effectiveDateTime value="2003-09-05"/>
    <status value="final"/>
    <reliability value="ok"/>
    <subject>
      <reference value="Patient/ID1213208"/>
    </subject>
    <encounter>
      <reference value="Encounter/ID389-e"/>
    </encounter>
    
  </Observation>
  
  </resource>
  <request>
    <method value="PUT"/>
    <url value="Observation/ID389-temperature"/>
  </request>
</entry>
<entry>
  <resource>
    
    
  <Observation>
  <id value="ID389-weight"/>
    <text>
      <status value="generated"/>
      <div xmlns="http://www.w3.org/1999/xhtml">2003-09-05: weight = 114.21456 kg</div>
    </text>
    <code>
      <coding>
        <system value="http://loinc.org"/>
        <code value="3141-9"/>
        <display value="weight"/>
      </coding>
    </code>
    <valueQuantity>
      <value value="114.21456"/>
      <unit value="kg"/>
      <system value="http://unitsofmeasure.org" />
      <code value="kg"/>
    </valueQuantity>
    
    <effectiveDateTime value="2003-09-05"/>
    <status value="final"/>
    <reliability value="ok"/>
    <subject>
      <reference value="Patient/ID1213208"/>
    </subject>
    <encounter>
      <reference value="Encounter/ID389-e"/>
    </encounter>
    
  </Observation>
  
  </resource>
  <request>
    <method value="PUT"/>
    <url value="Observation/ID389-weight"/>
  </request>
</entry>
<entry>
  <resource>
    
    
  <Observation>
  <id value="ID389-bmi"/>
    <text>
      <status value="generated"/>
      <div xmlns="http://www.w3.org/1999/xhtml">2003-09-05: bmi = 43.8 kg/m2</div>
    </text>
    <code>
      <coding>
        <system value="http://loinc.org"/>
        <code value="39156-5"/>
        <display value="bmi"/>
      </coding>
    </code>
    <valueQuantity>
      <value value="43.8"/>
      <unit value="kg/m2"/>
      <system value="http://unitsofmeasure.org" />
      <code value="kg/m2"/>
    </valueQuantity>
    
    <effectiveDateTime value="2003-09-05"/>
    <status value="final"/>
    <reliability value="ok"/>
    <subject>
      <reference value="Patient/ID1213208"/>
    </subject>
    <encounter>
      <reference value="Encounter/ID389-e"/>
    </encounter>
    
  </Observation>
  
  </resource>
  <request>
    <method value="PUT"/>
    <url value="Observation/ID389-bmi"/>
  </request>
</entry>
<entry>
  <resource>
    
    
  <Observation>
  <id value="ID389-oxygensaturation"/>
    <text>
      <status value="generated"/>
      <div xmlns="http://www.w3.org/1999/xhtml">2003-09-05: oxygen_saturation = 97.0 %{HemoglobinSaturation}</div>
    </text>
    <code>
      <coding>
        <system value="http://loinc.org"/>
        <code value="2710-2"/>
        <display value="oxygen_saturation"/>
      </coding>
    </code>
    <valueQuantity>
      <value value="97.0"/>
      <unit value="%{HemoglobinSaturation}"/>
      <system value="http://unitsofmeasure.org" />
      <code value="%{HemoglobinSaturation}"/>
    </valueQuantity>
    
    <effectiveDateTime value="2003-09-05"/>
    <status value="final"/>
    <reliability value="ok"/>
    <subject>
      <reference value="Patient/ID1213208"/>
    </subject>
    <encounter>
      <reference value="Encounter/ID389-e"/>
    </encounter>
    
  </Observation>
  
  </resource>
  <request>
    <method value="PUT"/>
    <url value="Observation/ID389-oxygensaturation"/>
  </request>
</entry>
<entry>
  <resource>
    
    
  <Observation>
  <id value="ID390-height"/>
    <text>
      <status value="generated"/>
      <div xmlns="http://www.w3.org/1999/xhtml">2006-12-08: height = 157.226 cm</div>
    </text>
    <code>
      <coding>
        <system value="http://loinc.org"/>
        <code value="8302-2"/>
        <display value="height"/>
      </coding>
    </code>
    <valueQuantity>
      <value value="157.226"/>
      <unit value="cm"/>
      <system value="http://unitsofmeasure.org" />
      <code value="cm"/>
    </valueQuantity>
    
    <effectiveDateTime value="2006-12-08"/>
    <status value="final"/>
    <reliability value="ok"/>
    <subject>
      <reference value="Patient/ID1213208"/>
    </subject>
    <encounter>
      <reference value="Encounter/ID390"/>
    </encounter>
    
  </Observation>
  
  </resource>
  <request>
    <method value="PUT"/>
    <url value="Observation/ID390-height"/>
  </request>
</entry>
<entry>
  <resource>
    
    
  <Observation>
  <id value="ID390-heartrate"/>
    <text>
      <status value="generated"/>
      <div xmlns="http://www.w3.org/1999/xhtml">2006-12-08: heart_rate = 73.0 {beats}/min</div>
    </text>
    <code>
      <coding>
        <system value="http://loinc.org"/>
        <code value="8867-4"/>
        <display value="heart_rate"/>
      </coding>
    </code>
    <valueQuantity>
      <value value="73.0"/>
      <unit value="{beats}/min"/>
      <system value="http://unitsofmeasure.org" />
      <code value="{beats}/min"/>
    </valueQuantity>
    
    <effectiveDateTime value="2006-12-08"/>
    <status value="final"/>
    <reliability value="ok"/>
    <subject>
      <reference value="Patient/ID1213208"/>
    </subject>
    <encounter>
      <reference value="Encounter/ID390"/>
    </encounter>
    
  </Observation>
  
  </resource>
  <request>
    <method value="PUT"/>
    <url value="Observation/ID390-heartrate"/>
  </request>
</entry>
<entry>
  <resource>
    
    
  <Observation>
  <id value="ID390-respiratoryrate"/>
    <text>
      <status value="generated"/>
      <div xmlns="http://www.w3.org/1999/xhtml">2006-12-08: respiratory_rate = 15.0 {breaths}/min</div>
    </text>
    <code>
      <coding>
        <system value="http://loinc.org"/>
        <code value="9279-1"/>
        <display value="respiratory_rate"/>
      </coding>
    </code>
    <valueQuantity>
      <value value="15.0"/>
      <unit value="{breaths}/min"/>
      <system value="http://unitsofmeasure.org" />
      <code value="{breaths}/min"/>
    </valueQuantity>
    
    <effectiveDateTime value="2006-12-08"/>
    <status value="final"/>
    <reliability value="ok"/>
    <subject>
      <reference value="Patient/ID1213208"/>
    </subject>
    <encounter>
      <reference value="Encounter/ID390"/>
    </encounter>
    
  </Observation>
  
  </resource>
  <request>
    <method value="PUT"/>
    <url value="Observation/ID390-respiratoryrate"/>
  </request>
</entry>
<entry>
  <resource>
    
    
  <Observation>
  <id value="ID390-temperature"/>
    <text>
      <status value="generated"/>
      <div xmlns="http://www.w3.org/1999/xhtml">2006-12-08: temperature = 36.83333 Cel</div>
    </text>
    <code>
      <coding>
        <system value="http://loinc.org"/>
        <code value="8310-5"/>
        <display value="temperature"/>
      </coding>
    </code>
    <valueQuantity>
      <value value="36.83333"/>
      <unit value="Cel"/>
      <system value="http://unitsofmeasure.org" />
      <code value="Cel"/>
    </valueQuantity>
    
    <effectiveDateTime value="2006-12-08"/>
    <status value="final"/>
    <reliability value="ok"/>
    <subject>
      <reference value="Patient/ID1213208"/>
    </subject>
    <encounter>
      <reference value="Encounter/ID390"/>
    </encounter>
    
  </Observation>
  
  </resource>
  <request>
    <method value="PUT"/>
    <url value="Observation/ID390-temperature"/>
  </request>
</entry>
<entry>
  <resource>
    
    
  <Observation>
  <id value="ID390-weight"/>
    <text>
      <status value="generated"/>
      <div xmlns="http://www.w3.org/1999/xhtml">2006-12-08: weight = 106.14061 kg</div>
    </text>
    <code>
      <coding>
        <system value="http://loinc.org"/>
        <code value="3141-9"/>
        <display value="weight"/>
      </coding>
    </code>
    <valueQuantity>
      <value value="106.14061"/>
      <unit value="kg"/>
      <system value="http://unitsofmeasure.org" />
      <code value="kg"/>
    </valueQuantity>
    
    <effectiveDateTime value="2006-12-08"/>
    <status value="final"/>
    <reliability value="ok"/>
    <subject>
      <reference value="Patient/ID1213208"/>
    </subject>
    <encounter>
      <reference value="Encounter/ID390"/>
    </encounter>
    
  </Observation>
  
  </resource>
  <request>
    <method value="PUT"/>
    <url value="Observation/ID390-weight"/>
  </request>
</entry>
<entry>
  <resource>
    
    
  <Observation>
  <id value="ID390-bmi"/>
    <text>
      <status value="generated"/>
      <div xmlns="http://www.w3.org/1999/xhtml">2006-12-08: bmi = 42.9 kg/m2</div>
    </text>
    <code>
      <coding>
        <system value="http://loinc.org"/>
        <code value="39156-5"/>
        <display value="bmi"/>
      </coding>
    </code>
    <valueQuantity>
      <value value="42.9"/>
      <unit value="kg/m2"/>
      <system value="http://unitsofmeasure.org" />
      <code value="kg/m2"/>
    </valueQuantity>
    
    <effectiveDateTime value="2006-12-08"/>
    <status value="final"/>
    <reliability value="ok"/>
    <subject>
      <reference value="Patient/ID1213208"/>
    </subject>
    <encounter>
      <reference value="Encounter/ID390"/>
    </encounter>
    
  </Observation>
  
  </resource>
  <request>
    <method value="PUT"/>
    <url value="Observation/ID390-bmi"/>
  </request>
</entry>
<entry>
  <resource>
    
    
  <Observation>
  <id value="ID390-oxygensaturation"/>
    <text>
      <status value="generated"/>
      <div xmlns="http://www.w3.org/1999/xhtml">2006-12-08: oxygen_saturation = 91.0 %{HemoglobinSaturation}</div>
    </text>
    <code>
      <coding>
        <system value="http://loinc.org"/>
        <code value="2710-2"/>
        <display value="oxygen_saturation"/>
      </coding>
    </code>
    <valueQuantity>
      <value value="91.0"/>
      <unit value="%{HemoglobinSaturation}"/>
      <system value="http://unitsofmeasure.org" />
      <code value="%{HemoglobinSaturation}"/>
    </valueQuantity>
    
    <effectiveDateTime value="2006-12-08"/>
    <status value="final"/>
    <reliability value="ok"/>
    <subject>
      <reference value="Patient/ID1213208"/>
    </subject>
    <encounter>
      <reference value="Encounter/ID390"/>
    </encounter>
    
  </Observation>
  
  </resource>
  <request>
    <method value="PUT"/>
    <url value="Observation/ID390-oxygensaturation"/>
  </request>
</entry>
<entry>
  <resource>
    
    
  <Observation>
  <id value="ID391-height"/>
    <text>
      <status value="generated"/>
      <div xmlns="http://www.w3.org/1999/xhtml">2006-12-11: height = 157.988 cm</div>
    </text>
    <code>
      <coding>
        <system value="http://loinc.org"/>
        <code value="8302-2"/>
        <display value="height"/>
      </coding>
    </code>
    <valueQuantity>
      <value value="157.988"/>
      <unit value="cm"/>
      <system value="http://unitsofmeasure.org" />
      <code value="cm"/>
    </valueQuantity>
    
    <effectiveDateTime value="2006-12-11"/>
    <status value="final"/>
    <reliability value="ok"/>
    <subject>
      <reference value="Patient/ID1213208"/>
    </subject>
    <encounter>
      <reference value="Encounter/ID391"/>
    </encounter>
    
  </Observation>
  
  </resource>
  <request>
    <method value="PUT"/>
    <url value="Observation/ID391-height"/>
  </request>
</entry>
<entry>
  <resource>
    
    
  <Observation>
  <id value="ID391-heartrate"/>
    <text>
      <status value="generated"/>
      <div xmlns="http://www.w3.org/1999/xhtml">2006-12-11: heart_rate = 76.0 {beats}/min</div>
    </text>
    <code>
      <coding>
        <system value="http://loinc.org"/>
        <code value="8867-4"/>
        <display value="heart_rate"/>
      </coding>
    </code>
    <valueQuantity>
      <value value="76.0"/>
      <unit value="{beats}/min"/>
      <system value="http://unitsofmeasure.org" />
      <code value="{beats}/min"/>
    </valueQuantity>
    
    <effectiveDateTime value="2006-12-11"/>
    <status value="final"/>
    <reliability value="ok"/>
    <subject>
      <reference value="Patient/ID1213208"/>
    </subject>
    <encounter>
      <reference value="Encounter/ID391"/>
    </encounter>
    
  </Observation>
  
  </resource>
  <request>
    <method value="PUT"/>
    <url value="Observation/ID391-heartrate"/>
  </request>
</entry>
<entry>
  <resource>
    
    
  <Observation>
  <id value="ID391-respiratoryrate"/>
    <text>
      <status value="generated"/>
      <div xmlns="http://www.w3.org/1999/xhtml">2006-12-11: respiratory_rate = 15.0 {breaths}/min</div>
    </text>
    <code>
      <coding>
        <system value="http://loinc.org"/>
        <code value="9279-1"/>
        <display value="respiratory_rate"/>
      </coding>
    </code>
    <valueQuantity>
      <value value="15.0"/>
      <unit value="{breaths}/min"/>
      <system value="http://unitsofmeasure.org" />
      <code value="{breaths}/min"/>
    </valueQuantity>
    
    <effectiveDateTime value="2006-12-11"/>
    <status value="final"/>
    <reliability value="ok"/>
    <subject>
      <reference value="Patient/ID1213208"/>
    </subject>
    <encounter>
      <reference value="Encounter/ID391"/>
    </encounter>
    
  </Observation>
  
  </resource>
  <request>
    <method value="PUT"/>
    <url value="Observation/ID391-respiratoryrate"/>
  </request>
</entry>
<entry>
  <resource>
    
    
  <Observation>
  <id value="ID391-temperature"/>
    <text>
      <status value="generated"/>
      <div xmlns="http://www.w3.org/1999/xhtml">2006-12-11: temperature = 36.83333 Cel</div>
    </text>
    <code>
      <coding>
        <system value="http://loinc.org"/>
        <code value="8310-5"/>
        <display value="temperature"/>
      </coding>
    </code>
    <valueQuantity>
      <value value="36.83333"/>
      <unit value="Cel"/>
      <system value="http://unitsofmeasure.org" />
      <code value="Cel"/>
    </valueQuantity>
    
    <effectiveDateTime value="2006-12-11"/>
    <status value="final"/>
    <reliability value="ok"/>
    <subject>
      <reference value="Patient/ID1213208"/>
    </subject>
    <encounter>
      <reference value="Encounter/ID391"/>
    </encounter>
    
  </Observation>
  
  </resource>
  <request>
    <method value="PUT"/>
    <url value="Observation/ID391-temperature"/>
  </request>
</entry>
<entry>
  <resource>
    
    
  <Observation>
  <id value="ID391-weight"/>
    <text>
      <status value="generated"/>
      <div xmlns="http://www.w3.org/1999/xhtml">2006-12-11: weight = 111.40229 kg</div>
    </text>
    <code>
      <coding>
        <system value="http://loinc.org"/>
        <code value="3141-9"/>
        <display value="weight"/>
      </coding>
    </code>
    <valueQuantity>
      <value value="111.40229"/>
      <unit value="kg"/>
      <system value="http://unitsofmeasure.org" />
      <code value="kg"/>
    </valueQuantity>
    
    <effectiveDateTime value="2006-12-11"/>
    <status value="final"/>
    <reliability value="ok"/>
    <subject>
      <reference value="Patient/ID1213208"/>
    </subject>
    <encounter>
      <reference value="Encounter/ID391"/>
    </encounter>
    
  </Observation>
  
  </resource>
  <request>
    <method value="PUT"/>
    <url value="Observation/ID391-weight"/>
  </request>
</entry>
<entry>
  <resource>
    
    
  <Observation>
  <id value="ID391-bmi"/>
    <text>
      <status value="generated"/>
      <div xmlns="http://www.w3.org/1999/xhtml">2006-12-11: bmi = 44.6 kg/m2</div>
    </text>
    <code>
      <coding>
        <system value="http://loinc.org"/>
        <code value="39156-5"/>
        <display value="bmi"/>
      </coding>
    </code>
    <valueQuantity>
      <value value="44.6"/>
      <unit value="kg/m2"/>
      <system value="http://unitsofmeasure.org" />
      <code value="kg/m2"/>
    </valueQuantity>
    
    <effectiveDateTime value="2006-12-11"/>
    <status value="final"/>
    <reliability value="ok"/>
    <subject>
      <reference value="Patient/ID1213208"/>
    </subject>
    <encounter>
      <reference value="Encounter/ID391"/>
    </encounter>
    
  </Observation>
  
  </resource>
  <request>
    <method value="PUT"/>
    <url value="Observation/ID391-bmi"/>
  </request>
</entry>
<entry>
  <resource>
    
    
  <Observation>
  <id value="ID391-oxygensaturation"/>
    <text>
      <status value="generated"/>
      <div xmlns="http://www.w3.org/1999/xhtml">2006-12-11: oxygen_saturation = 91.0 %{HemoglobinSaturation}</div>
    </text>
    <code>
      <coding>
        <system value="http://loinc.org"/>
        <code value="2710-2"/>
        <display value="oxygen_saturation"/>
      </coding>
    </code>
    <valueQuantity>
      <value value="91.0"/>
      <unit value="%{HemoglobinSaturation}"/>
      <system value="http://unitsofmeasure.org" />
      <code value="%{HemoglobinSaturation}"/>
    </valueQuantity>
    
    <effectiveDateTime value="2006-12-11"/>
    <status value="final"/>
    <reliability value="ok"/>
    <subject>
      <reference value="Patient/ID1213208"/>
    </subject>
    <encounter>
      <reference value="Encounter/ID391"/>
    </encounter>
    
  </Observation>
  
  </resource>
  <request>
    <method value="PUT"/>
    <url value="Observation/ID391-oxygensaturation"/>
  </request>
</entry>
<entry>
  <resource>
    
    
  <Observation>
  <id value="ID392-height"/>
    <text>
      <status value="generated"/>
      <div xmlns="http://www.w3.org/1999/xhtml">2006-12-14: height = 158.242 cm</div>
    </text>
    <code>
      <coding>
        <system value="http://loinc.org"/>
        <code value="8302-2"/>
        <display value="height"/>
      </coding>
    </code>
    <valueQuantity>
      <value value="158.242"/>
      <unit value="cm"/>
      <system value="http://unitsofmeasure.org" />
      <code value="cm"/>
    </valueQuantity>
    
    <effectiveDateTime value="2006-12-14"/>
    <status value="final"/>
    <reliability value="ok"/>
    <subject>
      <reference value="Patient/ID1213208"/>
    </subject>
    <encounter>
      <reference value="Encounter/ID392"/>
    </encounter>
    
  </Observation>
  
  </resource>
  <request>
    <method value="PUT"/>
    <url value="Observation/ID392-height"/>
  </request>
</entry>
<entry>
  <resource>
    
    
  <Observation>
  <id value="ID392-heartrate"/>
    <text>
      <status value="generated"/>
      <div xmlns="http://www.w3.org/1999/xhtml">2006-12-14: heart_rate = 77.0 {beats}/min</div>
    </text>
    <code>
      <coding>
        <system value="http://loinc.org"/>
        <code value="8867-4"/>
        <display value="heart_rate"/>
      </coding>
    </code>
    <valueQuantity>
      <value value="77.0"/>
      <unit value="{beats}/min"/>
      <system value="http://unitsofmeasure.org" />
      <code value="{beats}/min"/>
    </valueQuantity>
    
    <effectiveDateTime value="2006-12-14"/>
    <status value="final"/>
    <reliability value="ok"/>
    <subject>
      <reference value="Patient/ID1213208"/>
    </subject>
    <encounter>
      <reference value="Encounter/ID392"/>
    </encounter>
    
  </Observation>
  
  </resource>
  <request>
    <method value="PUT"/>
    <url value="Observation/ID392-heartrate"/>
  </request>
</entry>
<entry>
  <resource>
    
    
  <Observation>
  <id value="ID392-respiratoryrate"/>
    <text>
      <status value="generated"/>
      <div xmlns="http://www.w3.org/1999/xhtml">2006-12-14: respiratory_rate = 15.0 {breaths}/min</div>
    </text>
    <code>
      <coding>
        <system value="http://loinc.org"/>
        <code value="9279-1"/>
        <display value="respiratory_rate"/>
      </coding>
    </code>
    <valueQuantity>
      <value value="15.0"/>
      <unit value="{breaths}/min"/>
      <system value="http://unitsofmeasure.org" />
      <code value="{breaths}/min"/>
    </valueQuantity>
    
    <effectiveDateTime value="2006-12-14"/>
    <status value="final"/>
    <reliability value="ok"/>
    <subject>
      <reference value="Patient/ID1213208"/>
    </subject>
    <encounter>
      <reference value="Encounter/ID392"/>
    </encounter>
    
  </Observation>
  
  </resource>
  <request>
    <method value="PUT"/>
    <url value="Observation/ID392-respiratoryrate"/>
  </request>
</entry>
<entry>
  <resource>
    
    
  <Observation>
  <id value="ID392-temperature"/>
    <text>
      <status value="generated"/>
      <div xmlns="http://www.w3.org/1999/xhtml">2006-12-14: temperature = 36.83333 Cel</div>
    </text>
    <code>
      <coding>
        <system value="http://loinc.org"/>
        <code value="8310-5"/>
        <display value="temperature"/>
      </coding>
    </code>
    <valueQuantity>
      <value value="36.83333"/>
      <unit value="Cel"/>
      <system value="http://unitsofmeasure.org" />
      <code value="Cel"/>
    </valueQuantity>
    
    <effectiveDateTime value="2006-12-14"/>
    <status value="final"/>
    <reliability value="ok"/>
    <subject>
      <reference value="Patient/ID1213208"/>
    </subject>
    <encounter>
      <reference value="Encounter/ID392"/>
    </encounter>
    
  </Observation>
  
  </resource>
  <request>
    <method value="PUT"/>
    <url value="Observation/ID392-temperature"/>
  </request>
</entry>
<entry>
  <resource>
    
    
  <Observation>
  <id value="ID392-weight"/>
    <text>
      <status value="generated"/>
      <div xmlns="http://www.w3.org/1999/xhtml">2006-12-14: weight = 106.09526 kg</div>
    </text>
    <code>
      <coding>
        <system value="http://loinc.org"/>
        <code value="3141-9"/>
        <display value="weight"/>
      </coding>
    </code>
    <valueQuantity>
      <value value="106.09526"/>
      <unit value="kg"/>
      <system value="http://unitsofmeasure.org" />
      <code value="kg"/>
    </valueQuantity>
    
    <effectiveDateTime value="2006-12-14"/>
    <status value="final"/>
    <reliability value="ok"/>
    <subject>
      <reference value="Patient/ID1213208"/>
    </subject>
    <encounter>
      <reference value="Encounter/ID392"/>
    </encounter>
    
  </Observation>
  
  </resource>
  <request>
    <method value="PUT"/>
    <url value="Observation/ID392-weight"/>
  </request>
</entry>
<entry>
  <resource>
    
    
  <Observation>
  <id value="ID392-bmi"/>
    <text>
      <status value="generated"/>
      <div xmlns="http://www.w3.org/1999/xhtml">2006-12-14: bmi = 42.3 kg/m2</div>
    </text>
    <code>
      <coding>
        <system value="http://loinc.org"/>
        <code value="39156-5"/>
        <display value="bmi"/>
      </coding>
    </code>
    <valueQuantity>
      <value value="42.3"/>
      <unit value="kg/m2"/>
      <system value="http://unitsofmeasure.org" />
      <code value="kg/m2"/>
    </valueQuantity>
    
    <effectiveDateTime value="2006-12-14"/>
    <status value="final"/>
    <reliability value="ok"/>
    <subject>
      <reference value="Patient/ID1213208"/>
    </subject>
    <encounter>
      <reference value="Encounter/ID392"/>
    </encounter>
    
  </Observation>
  
  </resource>
  <request>
    <method value="PUT"/>
    <url value="Observation/ID392-bmi"/>
  </request>
</entry>
<entry>
  <resource>
    
    
  <Observation>
  <id value="ID392-oxygensaturation"/>
    <text>
      <status value="generated"/>
      <div xmlns="http://www.w3.org/1999/xhtml">2006-12-14: oxygen_saturation = 91.0 %{HemoglobinSaturation}</div>
    </text>
    <code>
      <coding>
        <system value="http://loinc.org"/>
        <code value="2710-2"/>
        <display value="oxygen_saturation"/>
      </coding>
    </code>
    <valueQuantity>
      <value value="91.0"/>
      <unit value="%{HemoglobinSaturation}"/>
      <system value="http://unitsofmeasure.org" />
      <code value="%{HemoglobinSaturation}"/>
    </valueQuantity>
    
    <effectiveDateTime value="2006-12-14"/>
    <status value="final"/>
    <reliability value="ok"/>
    <subject>
      <reference value="Patient/ID1213208"/>
    </subject>
    <encounter>
      <reference value="Encounter/ID392"/>
    </encounter>
    
  </Observation>
  
  </resource>
  <request>
    <method value="PUT"/>
    <url value="Observation/ID392-oxygensaturation"/>
  </request>
</entry>
<entry>
  <resource>
    
    
  <Observation>
  <id value="ID393-height"/>
    <text>
      <status value="generated"/>
      <div xmlns="http://www.w3.org/1999/xhtml">2006-12-15: height = 157.988 cm</div>
    </text>
    <code>
      <coding>
        <system value="http://loinc.org"/>
        <code value="8302-2"/>
        <display value="height"/>
      </coding>
    </code>
    <valueQuantity>
      <value value="157.988"/>
      <unit value="cm"/>
      <system value="http://unitsofmeasure.org" />
      <code value="cm"/>
    </valueQuantity>
    
    <effectiveDateTime value="2006-12-15"/>
    <status value="final"/>
    <reliability value="ok"/>
    <subject>
      <reference value="Patient/ID1213208"/>
    </subject>
    <encounter>
      <reference value="Encounter/ID393"/>
    </encounter>
    
  </Observation>
  
  </resource>
  <request>
    <method value="PUT"/>
    <url value="Observation/ID393-height"/>
  </request>
</entry>
<entry>
  <resource>
    
    
  <Observation>
  <id value="ID393-heartrate"/>
    <text>
      <status value="generated"/>
      <div xmlns="http://www.w3.org/1999/xhtml">2006-12-15: heart_rate = 77.0 {beats}/min</div>
    </text>
    <code>
      <coding>
        <system value="http://loinc.org"/>
        <code value="8867-4"/>
        <display value="heart_rate"/>
      </coding>
    </code>
    <valueQuantity>
      <value value="77.0"/>
      <unit value="{beats}/min"/>
      <system value="http://unitsofmeasure.org" />
      <code value="{beats}/min"/>
    </valueQuantity>
    
    <effectiveDateTime value="2006-12-15"/>
    <status value="final"/>
    <reliability value="ok"/>
    <subject>
      <reference value="Patient/ID1213208"/>
    </subject>
    <encounter>
      <reference value="Encounter/ID393"/>
    </encounter>
    
  </Observation>
  
  </resource>
  <request>
    <method value="PUT"/>
    <url value="Observation/ID393-heartrate"/>
  </request>
</entry>
<entry>
  <resource>
    
    
  <Observation>
  <id value="ID393-respiratoryrate"/>
    <text>
      <status value="generated"/>
      <div xmlns="http://www.w3.org/1999/xhtml">2006-12-15: respiratory_rate = 15.0 {breaths}/min</div>
    </text>
    <code>
      <coding>
        <system value="http://loinc.org"/>
        <code value="9279-1"/>
        <display value="respiratory_rate"/>
      </coding>
    </code>
    <valueQuantity>
      <value value="15.0"/>
      <unit value="{breaths}/min"/>
      <system value="http://unitsofmeasure.org" />
      <code value="{breaths}/min"/>
    </valueQuantity>
    
    <effectiveDateTime value="2006-12-15"/>
    <status value="final"/>
    <reliability value="ok"/>
    <subject>
      <reference value="Patient/ID1213208"/>
    </subject>
    <encounter>
      <reference value="Encounter/ID393"/>
    </encounter>
    
  </Observation>
  
  </resource>
  <request>
    <method value="PUT"/>
    <url value="Observation/ID393-respiratoryrate"/>
  </request>
</entry>
<entry>
  <resource>
    
    
  <Observation>
  <id value="ID393-temperature"/>
    <text>
      <status value="generated"/>
      <div xmlns="http://www.w3.org/1999/xhtml">2006-12-15: temperature = 36.83333 Cel</div>
    </text>
    <code>
      <coding>
        <system value="http://loinc.org"/>
        <code value="8310-5"/>
        <display value="temperature"/>
      </coding>
    </code>
    <valueQuantity>
      <value value="36.83333"/>
      <unit value="Cel"/>
      <system value="http://unitsofmeasure.org" />
      <code value="Cel"/>
    </valueQuantity>
    
    <effectiveDateTime value="2006-12-15"/>
    <status value="final"/>
    <reliability value="ok"/>
    <subject>
      <reference value="Patient/ID1213208"/>
    </subject>
    <encounter>
      <reference value="Encounter/ID393"/>
    </encounter>
    
  </Observation>
  
  </resource>
  <request>
    <method value="PUT"/>
    <url value="Observation/ID393-temperature"/>
  </request>
</entry>
<entry>
  <resource>
    
    
  <Observation>
  <id value="ID393-weight"/>
    <text>
      <status value="generated"/>
      <div xmlns="http://www.w3.org/1999/xhtml">2006-12-15: weight = 108.49929 kg</div>
    </text>
    <code>
      <coding>
        <system value="http://loinc.org"/>
        <code value="3141-9"/>
        <display value="weight"/>
      </coding>
    </code>
    <valueQuantity>
      <value value="108.49929"/>
      <unit value="kg"/>
      <system value="http://unitsofmeasure.org" />
      <code value="kg"/>
    </valueQuantity>
    
    <effectiveDateTime value="2006-12-15"/>
    <status value="final"/>
    <reliability value="ok"/>
    <subject>
      <reference value="Patient/ID1213208"/>
    </subject>
    <encounter>
      <reference value="Encounter/ID393"/>
    </encounter>
    
  </Observation>
  
  </resource>
  <request>
    <method value="PUT"/>
    <url value="Observation/ID393-weight"/>
  </request>
</entry>
<entry>
  <resource>
    
    
  <Observation>
  <id value="ID393-bmi"/>
    <text>
      <status value="generated"/>
      <div xmlns="http://www.w3.org/1999/xhtml">2006-12-15: bmi = 43.5 kg/m2</div>
    </text>
    <code>
      <coding>
        <system value="http://loinc.org"/>
        <code value="39156-5"/>
        <display value="bmi"/>
      </coding>
    </code>
    <valueQuantity>
      <value value="43.5"/>
      <unit value="kg/m2"/>
      <system value="http://unitsofmeasure.org" />
      <code value="kg/m2"/>
    </valueQuantity>
    
    <effectiveDateTime value="2006-12-15"/>
    <status value="final"/>
    <reliability value="ok"/>
    <subject>
      <reference value="Patient/ID1213208"/>
    </subject>
    <encounter>
      <reference value="Encounter/ID393"/>
    </encounter>
    
  </Observation>
  
  </resource>
  <request>
    <method value="PUT"/>
    <url value="Observation/ID393-bmi"/>
  </request>
</entry>
<entry>
  <resource>
    
    
  <Observation>
  <id value="ID393-oxygensaturation"/>
    <text>
      <status value="generated"/>
      <div xmlns="http://www.w3.org/1999/xhtml">2006-12-15: oxygen_saturation = 91.0 %{HemoglobinSaturation}</div>
    </text>
    <code>
      <coding>
        <system value="http://loinc.org"/>
        <code value="2710-2"/>
        <display value="oxygen_saturation"/>
      </coding>
    </code>
    <valueQuantity>
      <value value="91.0"/>
      <unit value="%{HemoglobinSaturation}"/>
      <system value="http://unitsofmeasure.org" />
      <code value="%{HemoglobinSaturation}"/>
    </valueQuantity>
    
    <effectiveDateTime value="2006-12-15"/>
    <status value="final"/>
    <reliability value="ok"/>
    <subject>
      <reference value="Patient/ID1213208"/>
    </subject>
    <encounter>
      <reference value="Encounter/ID393"/>
    </encounter>
    
  </Observation>
  
  </resource>
  <request>
    <method value="PUT"/>
    <url value="Observation/ID393-oxygensaturation"/>
  </request>
</entry>
<entry>
  <resource>
    
    
  <Observation>
  <id value="ID394-height"/>
    <text>
      <status value="generated"/>
      <div xmlns="http://www.w3.org/1999/xhtml">2006-12-18: height = 158.242 cm</div>
    </text>
    <code>
      <coding>
        <system value="http://loinc.org"/>
        <code value="8302-2"/>
        <display value="height"/>
      </coding>
    </code>
    <valueQuantity>
      <value value="158.242"/>
      <unit value="cm"/>
      <system value="http://unitsofmeasure.org" />
      <code value="cm"/>
    </valueQuantity>
    
    <effectiveDateTime value="2006-12-18"/>
    <status value="final"/>
    <reliability value="ok"/>
    <subject>
      <reference value="Patient/ID1213208"/>
    </subject>
    <encounter>
      <reference value="Encounter/ID394"/>
    </encounter>
    
  </Observation>
  
  </resource>
  <request>
    <method value="PUT"/>
    <url value="Observation/ID394-height"/>
  </request>
</entry>
<entry>
  <resource>
    
    
  <Observation>
  <id value="ID394-heartrate"/>
    <text>
      <status value="generated"/>
      <div xmlns="http://www.w3.org/1999/xhtml">2006-12-18: heart_rate = 82.0 {beats}/min</div>
    </text>
    <code>
      <coding>
        <system value="http://loinc.org"/>
        <code value="8867-4"/>
        <display value="heart_rate"/>
      </coding>
    </code>
    <valueQuantity>
      <value value="82.0"/>
      <unit value="{beats}/min"/>
      <system value="http://unitsofmeasure.org" />
      <code value="{beats}/min"/>
    </valueQuantity>
    
    <effectiveDateTime value="2006-12-18"/>
    <status value="final"/>
    <reliability value="ok"/>
    <subject>
      <reference value="Patient/ID1213208"/>
    </subject>
    <encounter>
      <reference value="Encounter/ID394"/>
    </encounter>
    
  </Observation>
  
  </resource>
  <request>
    <method value="PUT"/>
    <url value="Observation/ID394-heartrate"/>
  </request>
</entry>
<entry>
  <resource>
    
    
  <Observation>
  <id value="ID394-respiratoryrate"/>
    <text>
      <status value="generated"/>
      <div xmlns="http://www.w3.org/1999/xhtml">2006-12-18: respiratory_rate = 15.0 {breaths}/min</div>
    </text>
    <code>
      <coding>
        <system value="http://loinc.org"/>
        <code value="9279-1"/>
        <display value="respiratory_rate"/>
      </coding>
    </code>
    <valueQuantity>
      <value value="15.0"/>
      <unit value="{breaths}/min"/>
      <system value="http://unitsofmeasure.org" />
      <code value="{breaths}/min"/>
    </valueQuantity>
    
    <effectiveDateTime value="2006-12-18"/>
    <status value="final"/>
    <reliability value="ok"/>
    <subject>
      <reference value="Patient/ID1213208"/>
    </subject>
    <encounter>
      <reference value="Encounter/ID394"/>
    </encounter>
    
  </Observation>
  
  </resource>
  <request>
    <method value="PUT"/>
    <url value="Observation/ID394-respiratoryrate"/>
  </request>
</entry>
<entry>
  <resource>
    
    
  <Observation>
  <id value="ID394-temperature"/>
    <text>
      <status value="generated"/>
      <div xmlns="http://www.w3.org/1999/xhtml">2006-12-18: temperature = 36.83333 Cel</div>
    </text>
    <code>
      <coding>
        <system value="http://loinc.org"/>
        <code value="8310-5"/>
        <display value="temperature"/>
      </coding>
    </code>
    <valueQuantity>
      <value value="36.83333"/>
      <unit value="Cel"/>
      <system value="http://unitsofmeasure.org" />
      <code value="Cel"/>
    </valueQuantity>
    
    <effectiveDateTime value="2006-12-18"/>
    <status value="final"/>
    <reliability value="ok"/>
    <subject>
      <reference value="Patient/ID1213208"/>
    </subject>
    <encounter>
      <reference value="Encounter/ID394"/>
    </encounter>
    
  </Observation>
  
  </resource>
  <request>
    <method value="PUT"/>
    <url value="Observation/ID394-temperature"/>
  </request>
</entry>
<entry>
  <resource>
    
    
  <Observation>
  <id value="ID394-weight"/>
    <text>
      <status value="generated"/>
      <div xmlns="http://www.w3.org/1999/xhtml">2006-12-18: weight = 108.40858 kg</div>
    </text>
    <code>
      <coding>
        <system value="http://loinc.org"/>
        <code value="3141-9"/>
        <display value="weight"/>
      </coding>
    </code>
    <valueQuantity>
      <value value="108.40858"/>
      <unit value="kg"/>
      <system value="http://unitsofmeasure.org" />
      <code value="kg"/>
    </valueQuantity>
    
    <effectiveDateTime value="2006-12-18"/>
    <status value="final"/>
    <reliability value="ok"/>
    <subject>
      <reference value="Patient/ID1213208"/>
    </subject>
    <encounter>
      <reference value="Encounter/ID394"/>
    </encounter>
    
  </Observation>
  
  </resource>
  <request>
    <method value="PUT"/>
    <url value="Observation/ID394-weight"/>
  </request>
</entry>
<entry>
  <resource>
    
    
  <Observation>
  <id value="ID394-bmi"/>
    <text>
      <status value="generated"/>
      <div xmlns="http://www.w3.org/1999/xhtml">2006-12-18: bmi = 43.3 kg/m2</div>
    </text>
    <code>
      <coding>
        <system value="http://loinc.org"/>
        <code value="39156-5"/>
        <display value="bmi"/>
      </coding>
    </code>
    <valueQuantity>
      <value value="43.3"/>
      <unit value="kg/m2"/>
      <system value="http://unitsofmeasure.org" />
      <code value="kg/m2"/>
    </valueQuantity>
    
    <effectiveDateTime value="2006-12-18"/>
    <status value="final"/>
    <reliability value="ok"/>
    <subject>
      <reference value="Patient/ID1213208"/>
    </subject>
    <encounter>
      <reference value="Encounter/ID394"/>
    </encounter>
    
  </Observation>
  
  </resource>
  <request>
    <method value="PUT"/>
    <url value="Observation/ID394-bmi"/>
  </request>
</entry>
<entry>
  <resource>
    
    
  <Observation>
  <id value="ID394-oxygensaturation"/>
    <text>
      <status value="generated"/>
      <div xmlns="http://www.w3.org/1999/xhtml">2006-12-18: oxygen_saturation = 91.0 %{HemoglobinSaturation}</div>
    </text>
    <code>
      <coding>
        <system value="http://loinc.org"/>
        <code value="2710-2"/>
        <display value="oxygen_saturation"/>
      </coding>
    </code>
    <valueQuantity>
      <value value="91.0"/>
      <unit value="%{HemoglobinSaturation}"/>
      <system value="http://unitsofmeasure.org" />
      <code value="%{HemoglobinSaturation}"/>
    </valueQuantity>
    
    <effectiveDateTime value="2006-12-18"/>
    <status value="final"/>
    <reliability value="ok"/>
    <subject>
      <reference value="Patient/ID1213208"/>
    </subject>
    <encounter>
      <reference value="Encounter/ID394"/>
    </encounter>
    
  </Observation>
  
  </resource>
  <request>
    <method value="PUT"/>
    <url value="Observation/ID394-oxygensaturation"/>
  </request>
</entry>
  <entry>
  <resource>
    
    
  <Condition>
  <id value="ID153-c"/>
    <text>
     <status value="generated"/>
     <div xmlns="http://www.w3.org/1999/xhtml">Neck pain</div>   
   </text>
    <patient>
      <reference value="Patient/ID1213208"/>
    </patient>
    <code> 
      <coding>
        <system value="http://snomed.info/sct"/>
        <code value="81680005"/>
        <display value="Neck pain"/>
      </coding>
      <text value="Neck pain"/>
    </code>
   <clinicalStatus value="confirmed"/>
   <onsetDateTime value="2009-02-17"/>
   
  </Condition>
  
  </resource>
  <request>
    <method value="PUT"/>
    <url value="Condition/ID153-c"/>
  </request>
</entry>
  <entry>
  <resource>
    
    
  <Condition>
  <id value="ID154-c"/>
    <text>
     <status value="generated"/>
     <div xmlns="http://www.w3.org/1999/xhtml">Spasm</div>   
   </text>
    <patient>
      <reference value="Patient/ID1213208"/>
    </patient>
    <code> 
      <coding>
        <system value="http://snomed.info/sct"/>
        <code value="90392009"/>
        <display value="Spasm"/>
      </coding>
      <text value="Spasm"/>
    </code>
   <clinicalStatus value="confirmed"/>
   <onsetDateTime value="2009-02-17"/>
   
  </Condition>
  
  </resource>
  <request>
    <method value="PUT"/>
    <url value="Condition/ID154-c"/>
  </request>
</entry>
  <entry>
  <resource>
    
    
  <Condition>
  <id value="ID155-c"/>
    <text>
     <status value="generated"/>
     <div xmlns="http://www.w3.org/1999/xhtml">Unspecified local infection of skin and subcutaneous tissue</div>   
   </text>
    <patient>
      <reference value="Patient/ID1213208"/>
    </patient>
    <code> 
      <coding>
        <system value="http://snomed.info/sct"/>
        <code value="108365000"/>
        <display value="Unspecified local infection of skin and subcutaneous tissue"/>
      </coding>
      <text value="Unspecified local infection of skin and subcutaneous tissue"/>
    </code>
   <clinicalStatus value="confirmed"/>
   <onsetDateTime value="2009-05-11"/>
   
  </Condition>
  
  </resource>
  <request>
    <method value="PUT"/>
    <url value="Condition/ID155-c"/>
  </request>
</entry>
  <entry>
  <resource>
    
    
  <Condition>
  <id value="ID156-c"/>
    <text>
     <status value="generated"/>
     <div xmlns="http://www.w3.org/1999/xhtml">Benign essential hypertension</div>   
   </text>
    <patient>
      <reference value="Patient/ID1213208"/>
    </patient>
    <code> 
      <coding>
        <system value="http://snomed.info/sct"/>
        <code value="1201005"/>
        <display value="Benign essential hypertension"/>
      </coding>
      <text value="Benign essential hypertension"/>
    </code>
   <clinicalStatus value="confirmed"/>
   <onsetDateTime value="2009-05-13"/>
   
  </Condition>
  
  </resource>
  <request>
    <method value="PUT"/>
    <url value="Condition/ID156-c"/>
  </request>
</entry>
  <entry>
  <resource>
    
    
  <Condition>
  <id value="ID157-c"/>
    <text>
     <status value="generated"/>
     <div xmlns="http://www.w3.org/1999/xhtml">Cellulitis and abscess of leg</div>   
   </text>
    <patient>
      <reference value="Patient/ID1213208"/>
    </patient>
    <code> 
      <coding>
        <system value="http://snomed.info/sct"/>
        <code value="267782008"/>
        <display value="Cellulitis and abscess of leg"/>
      </coding>
      <text value="Cellulitis and abscess of leg"/>
    </code>
   <clinicalStatus value="confirmed"/>
   <onsetDateTime value="2009-05-13"/>
   
  </Condition>
  
  </resource>
  <request>
    <method value="PUT"/>
    <url value="Condition/ID157-c"/>
  </request>
</entry>
  <entry>
  <resource>
    
    
  <Condition>
  <id value="ID158-c"/>
    <text>
     <status value="generated"/>
     <div xmlns="http://www.w3.org/1999/xhtml">Gastro-esophageal reflux disease with esophagitis</div>   
   </text>
    <patient>
      <reference value="Patient/ID1213208"/>
    </patient>
    <code> 
      <coding>
        <system value="http://snomed.info/sct"/>
        <code value="57643001"/>
        <display value="Gastro-esophageal reflux disease with esophagitis"/>
      </coding>
      <text value="Gastro-esophageal reflux disease with esophagitis"/>
    </code>
   <clinicalStatus value="confirmed"/>
   <onsetDateTime value="2009-05-13"/>
   
  </Condition>
  
  </resource>
  <request>
    <method value="PUT"/>
    <url value="Condition/ID158-c"/>
  </request>
</entry>
  <entry>
  <resource>
    
    
  <Condition>
  <id value="ID159-c"/>
    <text>
     <status value="generated"/>
     <div xmlns="http://www.w3.org/1999/xhtml">Abdominal pain</div>   
   </text>
    <patient>
      <reference value="Patient/ID1213208"/>
    </patient>
    <code> 
      <coding>
        <system value="http://snomed.info/sct"/>
        <code value="30473006"/>
        <display value="Abdominal pain"/>
      </coding>
      <text value="Abdominal pain"/>
    </code>
   <clinicalStatus value="confirmed"/>
   <onsetDateTime value="2009-05-15"/>
   
  </Condition>
  
  </resource>
  <request>
    <method value="PUT"/>
    <url value="Condition/ID159-c"/>
  </request>
</entry>
  <entry>
  <resource>
    
    
  <Condition>
  <id value="ID160-c"/>
    <text>
     <status value="generated"/>
     <div xmlns="http://www.w3.org/1999/xhtml">Joint effusion of the lower leg</div>   
   </text>
    <patient>
      <reference value="Patient/ID1213208"/>
    </patient>
    <code> 
      <coding>
        <system value="http://snomed.info/sct"/>
        <code value="202381003"/>
        <display value="Joint effusion of the lower leg"/>
      </coding>
      <text value="Joint effusion of the lower leg"/>
    </code>
   <clinicalStatus value="confirmed"/>
   <onsetDateTime value="2009-05-15"/>
   
  </Condition>
  
  </resource>
  <request>
    <method value="PUT"/>
    <url value="Condition/ID160-c"/>
  </request>
</entry>
  <entry>
  <resource>
    
    
  <Condition>
  <id value="ID161-c"/>
    <text>
     <status value="generated"/>
     <div xmlns="http://www.w3.org/1999/xhtml">Lymphadenitis</div>   
   </text>
    <patient>
      <reference value="Patient/ID1213208"/>
    </patient>
    <code> 
      <coding>
        <system value="http://snomed.info/sct"/>
        <code value="19471005"/>
        <display value="Lymphadenitis"/>
      </coding>
      <text value="Lymphadenitis"/>
    </code>
   <clinicalStatus value="confirmed"/>
   <onsetDateTime value="2009-05-15"/>
   
  </Condition>
  
  </resource>
  <request>
    <method value="PUT"/>
    <url value="Condition/ID161-c"/>
  </request>
</entry>
  <entry>
  <resource>
    
    
  <Condition>
  <id value="ID162-c"/>
    <text>
     <status value="generated"/>
     <div xmlns="http://www.w3.org/1999/xhtml">Cellulitis and abscess of face</div>   
   </text>
    <patient>
      <reference value="Patient/ID1213208"/>
    </patient>
    <code> 
      <coding>
        <system value="http://snomed.info/sct"/>
        <code value="200645004"/>
        <display value="Cellulitis and abscess of face"/>
      </coding>
      <text value="Cellulitis and abscess of face"/>
    </code>
   <clinicalStatus value="confirmed"/>
   <onsetDateTime value="2009-06-25"/>
   
  </Condition>
  
  </resource>
  <request>
    <method value="PUT"/>
    <url value="Condition/ID162-c"/>
  </request>
</entry>
<entry>
  <resource>
    
    
  <Observation>
  <id value="ID19-smokingstatus"/>
    <text>
      <status value="generated"/>
      <div xmlns="http://www.w3.org/1999/xhtml">Tobacco smoking status: Former smoker</div>
    </text>
    <code>
      <coding>
        <system value="http://loinc.org"/>
        <code value="72166-2"/>
        <display value="Tobacco smoking status"/>
      </coding>
    </code>
    <valueCodeableConcept>
      <coding>
        <system value="http://snomed.info/sct"/>
        <code value="8517006"/>
        <display value="Former smoker"/>
      </coding>
    </valueCodeableConcept>
    <status value="final"/>
    <reliability value="ok"/>
    <subject>
      <reference value="Patient/ID1213208"/>
    </subject>
  </Observation>
  
  </resource>
  <request>
    <method value="PUT"/>
    <url value="Observation/ID19-smokingstatus"/>
  </request>
</entry>
<entry>
  <resource>
    
    
  <Observation>
  <id value="ID1213208-gestage"/>
    <text>
      <status value="generated"/>
      <div xmlns="http://www.w3.org/1999/xhtml">1965-06-22: Gestational age at birth = 32.2 weeks</div>
    </text>
    <code>
      <coding>
        <system value="http://loinc.org"/>
        <code value="18185-9"/>
        <display value="Gestational age at birth"/>
      </coding>
    </code>
    <valueQuantity>
      <value value="32.2"/>
      <unit value="weeks"/>
      <system value="http://unitsofmeasure.org" />
      <code value="wk"/>
    </valueQuantity>
    
    <effectiveDateTime value="1965-06-22"/>
    <status value="final"/>
    <reliability value="ok"/>
    <subject>
      <reference value="Patient/ID1213208"/>
    </subject>
  </Observation>
  
  </resource>
  <request>
    <method value="PUT"/>
    <url value="Observation/ID1213208-gestage"/>
  </request>
</entry>
  <entry>
  <resource>
    
    
    <List>
  <id value="ID26-l"/>
        <text>
            <status value="generated"/>
            <div xmlns="http://www.w3.org/1999/xhtml">No known allergies</div>
        </text>
        <code>
            <coding>
               <system value="http://loinc.org/"/>
               <code value="52473-6"/>
               <display value="Allergy"/>
            </coding>
        </code>
        <subject>
          <reference value="Patient/ID1213208"/>
        </subject>
        <date value="2000"/>
        <mode value="snapshot"/>
        <emptyReason>
            <coding>
                <system value="http://hl7.org/fhir/list-empty-reason"/>
                <code value="nilknown"/>
                <display value="Nil Known"/>
            </coding>
        </emptyReason>
    </List>
  
  </resource>
  <request>
    <method value="PUT"/>
    <url value="List/ID26-l"/>
  </request>
</entry>

</Bundle>
