<?xml version="1.0" encoding="UTF-8"?>
<Bundle xmlns="http://hl7.org/fhir">
    <type value="transaction"/>

  <entry>
  <resource>
    
    
  <Patient>
    <id value="ID880378"/>
    <text>
      <status value="generated"/>
      <div xmlns="http://www.w3.org/1999/xhtml">
        <p>Amy Lee</p>
      </div>
    </text>
    <identifier>
      <use value="usual"/>
      <type>
        <coding>
          <system value="http://hl7.org/fhir/v2/0203"/>
          <code value="MR"/>
          <display value="Medical record number"/>
        </coding>
      </type>
      <system value="http://hospital.smarthealthit.org"/>
      <value value="880378"/>
    </identifier>
    <name>
      <use value="official"/>
      <family value="Lee"/>
      <given value="Amy"/>
      <given value="R."/>
    </name>
    <telecom>
      <system value="email"/>
      <value value="amy.lee@example.com"/>
    </telecom>
    <gender value="female" />
    <birthDate value="1999-12-08" />
    <address>
      <use value="home"/>
      <line value="35 Ridge StApt 13"/>
      <city value="Tulsa"/>
      <state value="OK"/>
      <postalCode value="74117"/>
      <country value="USA"/>
    </address>
    <active value="true"/>
  </Patient>
  
  </resource>
  <request>
    <method value="PUT"/>
    <url value="Patient/ID880378"/>
  </request>
</entry>
  <entry>
  <resource>
    
    
    <Encounter>
  <id value="ID914"/>
      <text>
        <status value="generated"/>
        <div xmlns="http://www.w3.org/1999/xhtml">2004-05-07: ambulatory encounter</div>
      </text>
      <status value="finished"/>
      <class value="ambulatory"/>
      <patient>
        <reference value="Patient/ID880378"/>
      </patient>
      <period>
       <start value="2004-05-07"/>
       <end value="2004-05-07"/>
      </period>
    </Encounter>
  
  </resource>
  <request>
    <method value="PUT"/>
    <url value="Encounter/ID914"/>
  </request>
</entry>
  <entry>
  <resource>
    
    
    <Encounter>
  <id value="ID915"/>
      <text>
        <status value="generated"/>
        <div xmlns="http://www.w3.org/1999/xhtml">2004-09-10: ambulatory encounter</div>
      </text>
      <status value="finished"/>
      <class value="ambulatory"/>
      <patient>
        <reference value="Patient/ID880378"/>
      </patient>
      <period>
       <start value="2004-09-10"/>
       <end value="2004-09-10"/>
      </period>
    </Encounter>
  
  </resource>
  <request>
    <method value="PUT"/>
    <url value="Encounter/ID915"/>
  </request>
</entry>
  <entry>
  <resource>
    
    
    <Encounter>
  <id value="ID916"/>
      <text>
        <status value="generated"/>
        <div xmlns="http://www.w3.org/1999/xhtml">2004-09-13: ambulatory encounter</div>
      </text>
      <status value="finished"/>
      <class value="ambulatory"/>
      <patient>
        <reference value="Patient/ID880378"/>
      </patient>
      <period>
       <start value="2004-09-13"/>
       <end value="2004-09-13"/>
      </period>
    </Encounter>
  
  </resource>
  <request>
    <method value="PUT"/>
    <url value="Encounter/ID916"/>
  </request>
</entry>
  <entry>
  <resource>
    
    
    <Encounter>
  <id value="ID917"/>
      <text>
        <status value="generated"/>
        <div xmlns="http://www.w3.org/1999/xhtml">2005-04-28: ambulatory encounter</div>
      </text>
      <status value="finished"/>
      <class value="ambulatory"/>
      <patient>
        <reference value="Patient/ID880378"/>
      </patient>
      <period>
       <start value="2005-04-28"/>
       <end value="2005-04-28"/>
      </period>
    </Encounter>
  
  </resource>
  <request>
    <method value="PUT"/>
    <url value="Encounter/ID917"/>
  </request>
</entry>
  <entry>
  <resource>
    
    
    <Encounter>
  <id value="ID918"/>
      <text>
        <status value="generated"/>
        <div xmlns="http://www.w3.org/1999/xhtml">2005-04-29: ambulatory encounter</div>
      </text>
      <status value="finished"/>
      <class value="ambulatory"/>
      <patient>
        <reference value="Patient/ID880378"/>
      </patient>
      <period>
       <start value="2005-04-29"/>
       <end value="2005-04-29"/>
      </period>
    </Encounter>
  
  </resource>
  <request>
    <method value="PUT"/>
    <url value="Encounter/ID918"/>
  </request>
</entry>
  <entry>
  <resource>
    
    
    <Encounter>
  <id value="ID919"/>
      <text>
        <status value="generated"/>
        <div xmlns="http://www.w3.org/1999/xhtml">2005-06-27: ambulatory encounter</div>
      </text>
      <status value="finished"/>
      <class value="ambulatory"/>
      <patient>
        <reference value="Patient/ID880378"/>
      </patient>
      <period>
       <start value="2005-06-27"/>
       <end value="2005-06-27"/>
      </period>
    </Encounter>
  
  </resource>
  <request>
    <method value="PUT"/>
    <url value="Encounter/ID919"/>
  </request>
</entry>
  <entry>
  <resource>
    
    
    <Encounter>
  <id value="ID920"/>
      <text>
        <status value="generated"/>
        <div xmlns="http://www.w3.org/1999/xhtml">2006-03-07: ambulatory encounter</div>
      </text>
      <status value="finished"/>
      <class value="ambulatory"/>
      <patient>
        <reference value="Patient/ID880378"/>
      </patient>
      <period>
       <start value="2006-03-07"/>
       <end value="2006-03-07"/>
      </period>
    </Encounter>
  
  </resource>
  <request>
    <method value="PUT"/>
    <url value="Encounter/ID920"/>
  </request>
</entry>
  <entry>
  <resource>
    
    
    <Encounter>
  <id value="ID921"/>
      <text>
        <status value="generated"/>
        <div xmlns="http://www.w3.org/1999/xhtml">2006-03-08: ambulatory encounter</div>
      </text>
      <status value="finished"/>
      <class value="ambulatory"/>
      <patient>
        <reference value="Patient/ID880378"/>
      </patient>
      <period>
       <start value="2006-03-08"/>
       <end value="2006-03-08"/>
      </period>
    </Encounter>
  
  </resource>
  <request>
    <method value="PUT"/>
    <url value="Encounter/ID921"/>
  </request>
</entry>
  <entry>
  <resource>
    
    
    <Encounter>
  <id value="ID922"/>
      <text>
        <status value="generated"/>
        <div xmlns="http://www.w3.org/1999/xhtml">2006-04-04: ambulatory encounter</div>
      </text>
      <status value="finished"/>
      <class value="ambulatory"/>
      <patient>
        <reference value="Patient/ID880378"/>
      </patient>
      <period>
       <start value="2006-04-04"/>
       <end value="2006-04-04"/>
      </period>
    </Encounter>
  
  </resource>
  <request>
    <method value="PUT"/>
    <url value="Encounter/ID922"/>
  </request>
</entry>
  <entry>
  <resource>
    
    
    <Encounter>
  <id value="ID923"/>
      <text>
        <status value="generated"/>
        <div xmlns="http://www.w3.org/1999/xhtml">2006-04-05: ambulatory encounter</div>
      </text>
      <status value="finished"/>
      <class value="ambulatory"/>
      <patient>
        <reference value="Patient/ID880378"/>
      </patient>
      <period>
       <start value="2006-04-05"/>
       <end value="2006-04-05"/>
      </period>
    </Encounter>
  
  </resource>
  <request>
    <method value="PUT"/>
    <url value="Encounter/ID923"/>
  </request>
</entry>
  <entry>
  <resource>
    
    
    <Encounter>
  <id value="ID924"/>
      <text>
        <status value="generated"/>
        <div xmlns="http://www.w3.org/1999/xhtml">2006-04-24: ambulatory encounter</div>
      </text>
      <status value="finished"/>
      <class value="ambulatory"/>
      <patient>
        <reference value="Patient/ID880378"/>
      </patient>
      <period>
       <start value="2006-04-24"/>
       <end value="2006-04-24"/>
      </period>
    </Encounter>
  
  </resource>
  <request>
    <method value="PUT"/>
    <url value="Encounter/ID924"/>
  </request>
</entry>
  <entry>
  <resource>
    
    
    <Encounter>
  <id value="ID925"/>
      <text>
        <status value="generated"/>
        <div xmlns="http://www.w3.org/1999/xhtml">2006-07-06: ambulatory encounter</div>
      </text>
      <status value="finished"/>
      <class value="ambulatory"/>
      <patient>
        <reference value="Patient/ID880378"/>
      </patient>
      <period>
       <start value="2006-07-06"/>
       <end value="2006-07-06"/>
      </period>
    </Encounter>
  
  </resource>
  <request>
    <method value="PUT"/>
    <url value="Encounter/ID925"/>
  </request>
</entry>
  <entry>
  <resource>
    
    
    <Encounter>
  <id value="ID926"/>
      <text>
        <status value="generated"/>
        <div xmlns="http://www.w3.org/1999/xhtml">2006-07-07: ambulatory encounter</div>
      </text>
      <status value="finished"/>
      <class value="ambulatory"/>
      <patient>
        <reference value="Patient/ID880378"/>
      </patient>
      <period>
       <start value="2006-07-07"/>
       <end value="2006-07-07"/>
      </period>
    </Encounter>
  
  </resource>
  <request>
    <method value="PUT"/>
    <url value="Encounter/ID926"/>
  </request>
</entry>
  <entry>
  <resource>
    
    
    <Encounter>
  <id value="ID927"/>
      <text>
        <status value="generated"/>
        <div xmlns="http://www.w3.org/1999/xhtml">2007-02-16: ambulatory encounter</div>
      </text>
      <status value="finished"/>
      <class value="ambulatory"/>
      <patient>
        <reference value="Patient/ID880378"/>
      </patient>
      <period>
       <start value="2007-02-16"/>
       <end value="2007-02-16"/>
      </period>
    </Encounter>
  
  </resource>
  <request>
    <method value="PUT"/>
    <url value="Encounter/ID927"/>
  </request>
</entry>
  <entry>
  <resource>
    
    
    <Encounter>
  <id value="ID928"/>
      <text>
        <status value="generated"/>
        <div xmlns="http://www.w3.org/1999/xhtml">2007-02-23: ambulatory encounter</div>
      </text>
      <status value="finished"/>
      <class value="ambulatory"/>
      <patient>
        <reference value="Patient/ID880378"/>
      </patient>
      <period>
       <start value="2007-02-23"/>
       <end value="2007-02-23"/>
      </period>
    </Encounter>
  
  </resource>
  <request>
    <method value="PUT"/>
    <url value="Encounter/ID928"/>
  </request>
</entry>
  <entry>
  <resource>
    
    
    <Encounter>
  <id value="ID929"/>
      <text>
        <status value="generated"/>
        <div xmlns="http://www.w3.org/1999/xhtml">2007-11-15: ambulatory encounter</div>
      </text>
      <status value="finished"/>
      <class value="ambulatory"/>
      <patient>
        <reference value="Patient/ID880378"/>
      </patient>
      <period>
       <start value="2007-11-15"/>
       <end value="2007-11-15"/>
      </period>
    </Encounter>
  
  </resource>
  <request>
    <method value="PUT"/>
    <url value="Encounter/ID929"/>
  </request>
</entry>
  <entry>
  <resource>
    
    
    <Encounter>
  <id value="ID930"/>
      <text>
        <status value="generated"/>
        <div xmlns="http://www.w3.org/1999/xhtml">2008-01-16: ambulatory encounter</div>
      </text>
      <status value="finished"/>
      <class value="ambulatory"/>
      <patient>
        <reference value="Patient/ID880378"/>
      </patient>
      <period>
       <start value="2008-01-16"/>
       <end value="2008-01-16"/>
      </period>
    </Encounter>
  
  </resource>
  <request>
    <method value="PUT"/>
    <url value="Encounter/ID930"/>
  </request>
</entry>
  <entry>
  <resource>
    
    
    <Encounter>
  <id value="ID931"/>
      <text>
        <status value="generated"/>
        <div xmlns="http://www.w3.org/1999/xhtml">2008-01-17: ambulatory encounter</div>
      </text>
      <status value="finished"/>
      <class value="ambulatory"/>
      <patient>
        <reference value="Patient/ID880378"/>
      </patient>
      <period>
       <start value="2008-01-17"/>
       <end value="2008-01-17"/>
      </period>
    </Encounter>
  
  </resource>
  <request>
    <method value="PUT"/>
    <url value="Encounter/ID931"/>
  </request>
</entry>
  <entry>
  <resource>
    
    
    <Encounter>
  <id value="ID932"/>
      <text>
        <status value="generated"/>
        <div xmlns="http://www.w3.org/1999/xhtml">2008-03-10: ambulatory encounter</div>
      </text>
      <status value="finished"/>
      <class value="ambulatory"/>
      <patient>
        <reference value="Patient/ID880378"/>
      </patient>
      <period>
       <start value="2008-03-10"/>
       <end value="2008-03-10"/>
      </period>
    </Encounter>
  
  </resource>
  <request>
    <method value="PUT"/>
    <url value="Encounter/ID932"/>
  </request>
</entry>
  <entry>
  <resource>
    
    
  <Observation>
    <id value="ID914-bp"/>
    <text>
      <status value="generated"/>
      <div xmlns="http://www.w3.org/1999/xhtml">2004-05-07: Blood pressure 75/47 mmHg</div>
    </text>
    <code>
      <coding>
        <system value="http://loinc.org"/>
        <code value="55284-4"/>
        <display value="Blood pressure systolic and diastolic"/>
      </coding>
    </code>
    <effectiveDateTime value="2004-05-07"/>
    <status value="final"/>
    <reliability value="ok"/>
    <subject>
      <reference value="Patient/ID880378"/>
    </subject>
    <related>
      <type value="has-component"/>
      <target>
        <reference value="Observation/ID914-systolic"/>
      </target>
    </related>
    <related>
      <type value="has-component"/>
      <target>
        <reference value="Observation/ID914-diastolic"/>
      </target>
    </related>
    <encounter>
      <reference value="Encounter/ID914"/>
    </encounter>
    

  </Observation>
  
  </resource>
  <request>
    <method value="PUT"/>
    <url value="Observation/ID914-bp"/>
  </request>
</entry>
<entry>
  <resource>
    
    
  <Observation>
  <id value="ID914-systolic"/>
    <text>
      <status value="generated"/>
      <div xmlns="http://www.w3.org/1999/xhtml">2004-05-07: Systolic blood pressure = 75 mm[Hg]</div>
    </text>
    <code>
      <coding>
        <system value="http://loinc.org"/>
        <code value="8480-6"/>
        <display value="Systolic blood pressure"/>
      </coding>
    </code>
    <valueQuantity>
      <value value="75.0"/>
      <unit value="mm[Hg]"/>
      <system value="http://unitsofmeasure.org" />
      <code value="mm[Hg]"/>
    </valueQuantity>
    
    <effectiveDateTime value="2004-05-07"/>
    <status value="final"/>
    <reliability value="ok"/>
    <subject>
      <reference value="Patient/ID880378"/>
    </subject>
  </Observation>
  
  </resource>
  <request>
    <method value="PUT"/>
    <url value="Observation/ID914-systolic"/>
  </request>
</entry>
<entry>
  <resource>
    
    
  <Observation>
  <id value="ID914-diastolic"/>
    <text>
      <status value="generated"/>
      <div xmlns="http://www.w3.org/1999/xhtml">2004-05-07: Diastolic blood pressure = 47 mm[Hg]</div>
    </text>
    <code>
      <coding>
        <system value="http://loinc.org"/>
        <code value="8462-4"/>
        <display value="Diastolic blood pressure"/>
      </coding>
    </code>
    <valueQuantity>
      <value value="47.0"/>
      <unit value="mm[Hg]"/>
      <system value="http://unitsofmeasure.org" />
      <code value="mm[Hg]"/>
    </valueQuantity>
    
    <effectiveDateTime value="2004-05-07"/>
    <status value="final"/>
    <reliability value="ok"/>
    <subject>
      <reference value="Patient/ID880378"/>
    </subject>
  </Observation>
  
  </resource>
  <request>
    <method value="PUT"/>
    <url value="Observation/ID914-diastolic"/>
  </request>
</entry>
  <entry>
  <resource>
    
    
  <Observation>
    <id value="ID915-bp"/>
    <text>
      <status value="generated"/>
      <div xmlns="http://www.w3.org/1999/xhtml">2004-09-10: Blood pressure 84/50 mmHg</div>
    </text>
    <code>
      <coding>
        <system value="http://loinc.org"/>
        <code value="55284-4"/>
        <display value="Blood pressure systolic and diastolic"/>
      </coding>
    </code>
    <effectiveDateTime value="2004-09-10"/>
    <status value="final"/>
    <reliability value="ok"/>
    <subject>
      <reference value="Patient/ID880378"/>
    </subject>
    <related>
      <type value="has-component"/>
      <target>
        <reference value="Observation/ID915-systolic"/>
      </target>
    </related>
    <related>
      <type value="has-component"/>
      <target>
        <reference value="Observation/ID915-diastolic"/>
      </target>
    </related>
    <encounter>
      <reference value="Encounter/ID915"/>
    </encounter>
    

  </Observation>
  
  </resource>
  <request>
    <method value="PUT"/>
    <url value="Observation/ID915-bp"/>
  </request>
</entry>
<entry>
  <resource>
    
    
  <Observation>
  <id value="ID915-systolic"/>
    <text>
      <status value="generated"/>
      <div xmlns="http://www.w3.org/1999/xhtml">2004-09-10: Systolic blood pressure = 84 mm[Hg]</div>
    </text>
    <code>
      <coding>
        <system value="http://loinc.org"/>
        <code value="8480-6"/>
        <display value="Systolic blood pressure"/>
      </coding>
    </code>
    <valueQuantity>
      <value value="84.0"/>
      <unit value="mm[Hg]"/>
      <system value="http://unitsofmeasure.org" />
      <code value="mm[Hg]"/>
    </valueQuantity>
    
    <effectiveDateTime value="2004-09-10"/>
    <status value="final"/>
    <reliability value="ok"/>
    <subject>
      <reference value="Patient/ID880378"/>
    </subject>
  </Observation>
  
  </resource>
  <request>
    <method value="PUT"/>
    <url value="Observation/ID915-systolic"/>
  </request>
</entry>
<entry>
  <resource>
    
    
  <Observation>
  <id value="ID915-diastolic"/>
    <text>
      <status value="generated"/>
      <div xmlns="http://www.w3.org/1999/xhtml">2004-09-10: Diastolic blood pressure = 50 mm[Hg]</div>
    </text>
    <code>
      <coding>
        <system value="http://loinc.org"/>
        <code value="8462-4"/>
        <display value="Diastolic blood pressure"/>
      </coding>
    </code>
    <valueQuantity>
      <value value="50.0"/>
      <unit value="mm[Hg]"/>
      <system value="http://unitsofmeasure.org" />
      <code value="mm[Hg]"/>
    </valueQuantity>
    
    <effectiveDateTime value="2004-09-10"/>
    <status value="final"/>
    <reliability value="ok"/>
    <subject>
      <reference value="Patient/ID880378"/>
    </subject>
  </Observation>
  
  </resource>
  <request>
    <method value="PUT"/>
    <url value="Observation/ID915-diastolic"/>
  </request>
</entry>
  <entry>
  <resource>
    
    
  <Observation>
    <id value="ID916-bp"/>
    <text>
      <status value="generated"/>
      <div xmlns="http://www.w3.org/1999/xhtml">2004-09-13: Blood pressure 97/60 mmHg</div>
    </text>
    <code>
      <coding>
        <system value="http://loinc.org"/>
        <code value="55284-4"/>
        <display value="Blood pressure systolic and diastolic"/>
      </coding>
    </code>
    <effectiveDateTime value="2004-09-13"/>
    <status value="final"/>
    <reliability value="ok"/>
    <subject>
      <reference value="Patient/ID880378"/>
    </subject>
    <related>
      <type value="has-component"/>
      <target>
        <reference value="Observation/ID916-systolic"/>
      </target>
    </related>
    <related>
      <type value="has-component"/>
      <target>
        <reference value="Observation/ID916-diastolic"/>
      </target>
    </related>
    <encounter>
      <reference value="Encounter/ID916"/>
    </encounter>
    

  </Observation>
  
  </resource>
  <request>
    <method value="PUT"/>
    <url value="Observation/ID916-bp"/>
  </request>
</entry>
<entry>
  <resource>
    
    
  <Observation>
  <id value="ID916-systolic"/>
    <text>
      <status value="generated"/>
      <div xmlns="http://www.w3.org/1999/xhtml">2004-09-13: Systolic blood pressure = 97 mm[Hg]</div>
    </text>
    <code>
      <coding>
        <system value="http://loinc.org"/>
        <code value="8480-6"/>
        <display value="Systolic blood pressure"/>
      </coding>
    </code>
    <valueQuantity>
      <value value="97.0"/>
      <unit value="mm[Hg]"/>
      <system value="http://unitsofmeasure.org" />
      <code value="mm[Hg]"/>
    </valueQuantity>
    
    <effectiveDateTime value="2004-09-13"/>
    <status value="final"/>
    <reliability value="ok"/>
    <subject>
      <reference value="Patient/ID880378"/>
    </subject>
  </Observation>
  
  </resource>
  <request>
    <method value="PUT"/>
    <url value="Observation/ID916-systolic"/>
  </request>
</entry>
<entry>
  <resource>
    
    
  <Observation>
  <id value="ID916-diastolic"/>
    <text>
      <status value="generated"/>
      <div xmlns="http://www.w3.org/1999/xhtml">2004-09-13: Diastolic blood pressure = 60 mm[Hg]</div>
    </text>
    <code>
      <coding>
        <system value="http://loinc.org"/>
        <code value="8462-4"/>
        <display value="Diastolic blood pressure"/>
      </coding>
    </code>
    <valueQuantity>
      <value value="60.0"/>
      <unit value="mm[Hg]"/>
      <system value="http://unitsofmeasure.org" />
      <code value="mm[Hg]"/>
    </valueQuantity>
    
    <effectiveDateTime value="2004-09-13"/>
    <status value="final"/>
    <reliability value="ok"/>
    <subject>
      <reference value="Patient/ID880378"/>
    </subject>
  </Observation>
  
  </resource>
  <request>
    <method value="PUT"/>
    <url value="Observation/ID916-diastolic"/>
  </request>
</entry>
  <entry>
  <resource>
    
    
  <Observation>
    <id value="ID917-bp"/>
    <text>
      <status value="generated"/>
      <div xmlns="http://www.w3.org/1999/xhtml">2005-04-28: Blood pressure 74/42 mmHg</div>
    </text>
    <code>
      <coding>
        <system value="http://loinc.org"/>
        <code value="55284-4"/>
        <display value="Blood pressure systolic and diastolic"/>
      </coding>
    </code>
    <effectiveDateTime value="2005-04-28"/>
    <status value="final"/>
    <reliability value="ok"/>
    <subject>
      <reference value="Patient/ID880378"/>
    </subject>
    <related>
      <type value="has-component"/>
      <target>
        <reference value="Observation/ID917-systolic"/>
      </target>
    </related>
    <related>
      <type value="has-component"/>
      <target>
        <reference value="Observation/ID917-diastolic"/>
      </target>
    </related>
    <encounter>
      <reference value="Encounter/ID917"/>
    </encounter>
    

  </Observation>
  
  </resource>
  <request>
    <method value="PUT"/>
    <url value="Observation/ID917-bp"/>
  </request>
</entry>
<entry>
  <resource>
    
    
  <Observation>
  <id value="ID917-systolic"/>
    <text>
      <status value="generated"/>
      <div xmlns="http://www.w3.org/1999/xhtml">2005-04-28: Systolic blood pressure = 74 mm[Hg]</div>
    </text>
    <code>
      <coding>
        <system value="http://loinc.org"/>
        <code value="8480-6"/>
        <display value="Systolic blood pressure"/>
      </coding>
    </code>
    <valueQuantity>
      <value value="74.0"/>
      <unit value="mm[Hg]"/>
      <system value="http://unitsofmeasure.org" />
      <code value="mm[Hg]"/>
    </valueQuantity>
    
    <effectiveDateTime value="2005-04-28"/>
    <status value="final"/>
    <reliability value="ok"/>
    <subject>
      <reference value="Patient/ID880378"/>
    </subject>
  </Observation>
  
  </resource>
  <request>
    <method value="PUT"/>
    <url value="Observation/ID917-systolic"/>
  </request>
</entry>
<entry>
  <resource>
    
    
  <Observation>
  <id value="ID917-diastolic"/>
    <text>
      <status value="generated"/>
      <div xmlns="http://www.w3.org/1999/xhtml">2005-04-28: Diastolic blood pressure = 42 mm[Hg]</div>
    </text>
    <code>
      <coding>
        <system value="http://loinc.org"/>
        <code value="8462-4"/>
        <display value="Diastolic blood pressure"/>
      </coding>
    </code>
    <valueQuantity>
      <value value="42.0"/>
      <unit value="mm[Hg]"/>
      <system value="http://unitsofmeasure.org" />
      <code value="mm[Hg]"/>
    </valueQuantity>
    
    <effectiveDateTime value="2005-04-28"/>
    <status value="final"/>
    <reliability value="ok"/>
    <subject>
      <reference value="Patient/ID880378"/>
    </subject>
  </Observation>
  
  </resource>
  <request>
    <method value="PUT"/>
    <url value="Observation/ID917-diastolic"/>
  </request>
</entry>
  <entry>
  <resource>
    
    
  <Observation>
    <id value="ID918-bp"/>
    <text>
      <status value="generated"/>
      <div xmlns="http://www.w3.org/1999/xhtml">2005-04-29: Blood pressure 102/64 mmHg</div>
    </text>
    <code>
      <coding>
        <system value="http://loinc.org"/>
        <code value="55284-4"/>
        <display value="Blood pressure systolic and diastolic"/>
      </coding>
    </code>
    <effectiveDateTime value="2005-04-29"/>
    <status value="final"/>
    <reliability value="ok"/>
    <subject>
      <reference value="Patient/ID880378"/>
    </subject>
    <related>
      <type value="has-component"/>
      <target>
        <reference value="Observation/ID918-systolic"/>
      </target>
    </related>
    <related>
      <type value="has-component"/>
      <target>
        <reference value="Observation/ID918-diastolic"/>
      </target>
    </related>
    <encounter>
      <reference value="Encounter/ID918"/>
    </encounter>
    

  </Observation>
  
  </resource>
  <request>
    <method value="PUT"/>
    <url value="Observation/ID918-bp"/>
  </request>
</entry>
<entry>
  <resource>
    
    
  <Observation>
  <id value="ID918-systolic"/>
    <text>
      <status value="generated"/>
      <div xmlns="http://www.w3.org/1999/xhtml">2005-04-29: Systolic blood pressure = 102 mm[Hg]</div>
    </text>
    <code>
      <coding>
        <system value="http://loinc.org"/>
        <code value="8480-6"/>
        <display value="Systolic blood pressure"/>
      </coding>
    </code>
    <valueQuantity>
      <value value="102.0"/>
      <unit value="mm[Hg]"/>
      <system value="http://unitsofmeasure.org" />
      <code value="mm[Hg]"/>
    </valueQuantity>
    
    <effectiveDateTime value="2005-04-29"/>
    <status value="final"/>
    <reliability value="ok"/>
    <subject>
      <reference value="Patient/ID880378"/>
    </subject>
  </Observation>
  
  </resource>
  <request>
    <method value="PUT"/>
    <url value="Observation/ID918-systolic"/>
  </request>
</entry>
<entry>
  <resource>
    
    
  <Observation>
  <id value="ID918-diastolic"/>
    <text>
      <status value="generated"/>
      <div xmlns="http://www.w3.org/1999/xhtml">2005-04-29: Diastolic blood pressure = 64 mm[Hg]</div>
    </text>
    <code>
      <coding>
        <system value="http://loinc.org"/>
        <code value="8462-4"/>
        <display value="Diastolic blood pressure"/>
      </coding>
    </code>
    <valueQuantity>
      <value value="64.0"/>
      <unit value="mm[Hg]"/>
      <system value="http://unitsofmeasure.org" />
      <code value="mm[Hg]"/>
    </valueQuantity>
    
    <effectiveDateTime value="2005-04-29"/>
    <status value="final"/>
    <reliability value="ok"/>
    <subject>
      <reference value="Patient/ID880378"/>
    </subject>
  </Observation>
  
  </resource>
  <request>
    <method value="PUT"/>
    <url value="Observation/ID918-diastolic"/>
  </request>
</entry>
  <entry>
  <resource>
    
    
  <Observation>
    <id value="ID919-bp"/>
    <text>
      <status value="generated"/>
      <div xmlns="http://www.w3.org/1999/xhtml">2005-06-27: Blood pressure 54/25 mmHg</div>
    </text>
    <code>
      <coding>
        <system value="http://loinc.org"/>
        <code value="55284-4"/>
        <display value="Blood pressure systolic and diastolic"/>
      </coding>
    </code>
    <effectiveDateTime value="2005-06-27"/>
    <status value="final"/>
    <reliability value="ok"/>
    <subject>
      <reference value="Patient/ID880378"/>
    </subject>
    <related>
      <type value="has-component"/>
      <target>
        <reference value="Observation/ID919-systolic"/>
      </target>
    </related>
    <related>
      <type value="has-component"/>
      <target>
        <reference value="Observation/ID919-diastolic"/>
      </target>
    </related>
    <encounter>
      <reference value="Encounter/ID919"/>
    </encounter>
    

  </Observation>
  
  </resource>
  <request>
    <method value="PUT"/>
    <url value="Observation/ID919-bp"/>
  </request>
</entry>
<entry>
  <resource>
    
    
  <Observation>
  <id value="ID919-systolic"/>
    <text>
      <status value="generated"/>
      <div xmlns="http://www.w3.org/1999/xhtml">2005-06-27: Systolic blood pressure = 54 mm[Hg]</div>
    </text>
    <code>
      <coding>
        <system value="http://loinc.org"/>
        <code value="8480-6"/>
        <display value="Systolic blood pressure"/>
      </coding>
    </code>
    <valueQuantity>
      <value value="54.0"/>
      <unit value="mm[Hg]"/>
      <system value="http://unitsofmeasure.org" />
      <code value="mm[Hg]"/>
    </valueQuantity>
    
    <effectiveDateTime value="2005-06-27"/>
    <status value="final"/>
    <reliability value="ok"/>
    <subject>
      <reference value="Patient/ID880378"/>
    </subject>
  </Observation>
  
  </resource>
  <request>
    <method value="PUT"/>
    <url value="Observation/ID919-systolic"/>
  </request>
</entry>
<entry>
  <resource>
    
    
  <Observation>
  <id value="ID919-diastolic"/>
    <text>
      <status value="generated"/>
      <div xmlns="http://www.w3.org/1999/xhtml">2005-06-27: Diastolic blood pressure = 25 mm[Hg]</div>
    </text>
    <code>
      <coding>
        <system value="http://loinc.org"/>
        <code value="8462-4"/>
        <display value="Diastolic blood pressure"/>
      </coding>
    </code>
    <valueQuantity>
      <value value="25.0"/>
      <unit value="mm[Hg]"/>
      <system value="http://unitsofmeasure.org" />
      <code value="mm[Hg]"/>
    </valueQuantity>
    
    <effectiveDateTime value="2005-06-27"/>
    <status value="final"/>
    <reliability value="ok"/>
    <subject>
      <reference value="Patient/ID880378"/>
    </subject>
  </Observation>
  
  </resource>
  <request>
    <method value="PUT"/>
    <url value="Observation/ID919-diastolic"/>
  </request>
</entry>
  <entry>
  <resource>
    
    
  <Observation>
    <id value="ID920-bp"/>
    <text>
      <status value="generated"/>
      <div xmlns="http://www.w3.org/1999/xhtml">2006-03-07: Blood pressure 97/59 mmHg</div>
    </text>
    <code>
      <coding>
        <system value="http://loinc.org"/>
        <code value="55284-4"/>
        <display value="Blood pressure systolic and diastolic"/>
      </coding>
    </code>
    <effectiveDateTime value="2006-03-07"/>
    <status value="final"/>
    <reliability value="ok"/>
    <subject>
      <reference value="Patient/ID880378"/>
    </subject>
    <related>
      <type value="has-component"/>
      <target>
        <reference value="Observation/ID920-systolic"/>
      </target>
    </related>
    <related>
      <type value="has-component"/>
      <target>
        <reference value="Observation/ID920-diastolic"/>
      </target>
    </related>
    <encounter>
      <reference value="Encounter/ID920"/>
    </encounter>
    

  </Observation>
  
  </resource>
  <request>
    <method value="PUT"/>
    <url value="Observation/ID920-bp"/>
  </request>
</entry>
<entry>
  <resource>
    
    
  <Observation>
  <id value="ID920-systolic"/>
    <text>
      <status value="generated"/>
      <div xmlns="http://www.w3.org/1999/xhtml">2006-03-07: Systolic blood pressure = 97 mm[Hg]</div>
    </text>
    <code>
      <coding>
        <system value="http://loinc.org"/>
        <code value="8480-6"/>
        <display value="Systolic blood pressure"/>
      </coding>
    </code>
    <valueQuantity>
      <value value="97.0"/>
      <unit value="mm[Hg]"/>
      <system value="http://unitsofmeasure.org" />
      <code value="mm[Hg]"/>
    </valueQuantity>
    
    <effectiveDateTime value="2006-03-07"/>
    <status value="final"/>
    <reliability value="ok"/>
    <subject>
      <reference value="Patient/ID880378"/>
    </subject>
  </Observation>
  
  </resource>
  <request>
    <method value="PUT"/>
    <url value="Observation/ID920-systolic"/>
  </request>
</entry>
<entry>
  <resource>
    
    
  <Observation>
  <id value="ID920-diastolic"/>
    <text>
      <status value="generated"/>
      <div xmlns="http://www.w3.org/1999/xhtml">2006-03-07: Diastolic blood pressure = 59 mm[Hg]</div>
    </text>
    <code>
      <coding>
        <system value="http://loinc.org"/>
        <code value="8462-4"/>
        <display value="Diastolic blood pressure"/>
      </coding>
    </code>
    <valueQuantity>
      <value value="59.0"/>
      <unit value="mm[Hg]"/>
      <system value="http://unitsofmeasure.org" />
      <code value="mm[Hg]"/>
    </valueQuantity>
    
    <effectiveDateTime value="2006-03-07"/>
    <status value="final"/>
    <reliability value="ok"/>
    <subject>
      <reference value="Patient/ID880378"/>
    </subject>
  </Observation>
  
  </resource>
  <request>
    <method value="PUT"/>
    <url value="Observation/ID920-diastolic"/>
  </request>
</entry>
  <entry>
  <resource>
    
    
  <Observation>
    <id value="ID921-bp"/>
    <text>
      <status value="generated"/>
      <div xmlns="http://www.w3.org/1999/xhtml">2006-03-08: Blood pressure 90/54 mmHg</div>
    </text>
    <code>
      <coding>
        <system value="http://loinc.org"/>
        <code value="55284-4"/>
        <display value="Blood pressure systolic and diastolic"/>
      </coding>
    </code>
    <effectiveDateTime value="2006-03-08"/>
    <status value="final"/>
    <reliability value="ok"/>
    <subject>
      <reference value="Patient/ID880378"/>
    </subject>
    <related>
      <type value="has-component"/>
      <target>
        <reference value="Observation/ID921-systolic"/>
      </target>
    </related>
    <related>
      <type value="has-component"/>
      <target>
        <reference value="Observation/ID921-diastolic"/>
      </target>
    </related>
    <encounter>
      <reference value="Encounter/ID921"/>
    </encounter>
    

  </Observation>
  
  </resource>
  <request>
    <method value="PUT"/>
    <url value="Observation/ID921-bp"/>
  </request>
</entry>
<entry>
  <resource>
    
    
  <Observation>
  <id value="ID921-systolic"/>
    <text>
      <status value="generated"/>
      <div xmlns="http://www.w3.org/1999/xhtml">2006-03-08: Systolic blood pressure = 90 mm[Hg]</div>
    </text>
    <code>
      <coding>
        <system value="http://loinc.org"/>
        <code value="8480-6"/>
        <display value="Systolic blood pressure"/>
      </coding>
    </code>
    <valueQuantity>
      <value value="90.0"/>
      <unit value="mm[Hg]"/>
      <system value="http://unitsofmeasure.org" />
      <code value="mm[Hg]"/>
    </valueQuantity>
    
    <effectiveDateTime value="2006-03-08"/>
    <status value="final"/>
    <reliability value="ok"/>
    <subject>
      <reference value="Patient/ID880378"/>
    </subject>
  </Observation>
  
  </resource>
  <request>
    <method value="PUT"/>
    <url value="Observation/ID921-systolic"/>
  </request>
</entry>
<entry>
  <resource>
    
    
  <Observation>
  <id value="ID921-diastolic"/>
    <text>
      <status value="generated"/>
      <div xmlns="http://www.w3.org/1999/xhtml">2006-03-08: Diastolic blood pressure = 54 mm[Hg]</div>
    </text>
    <code>
      <coding>
        <system value="http://loinc.org"/>
        <code value="8462-4"/>
        <display value="Diastolic blood pressure"/>
      </coding>
    </code>
    <valueQuantity>
      <value value="54.0"/>
      <unit value="mm[Hg]"/>
      <system value="http://unitsofmeasure.org" />
      <code value="mm[Hg]"/>
    </valueQuantity>
    
    <effectiveDateTime value="2006-03-08"/>
    <status value="final"/>
    <reliability value="ok"/>
    <subject>
      <reference value="Patient/ID880378"/>
    </subject>
  </Observation>
  
  </resource>
  <request>
    <method value="PUT"/>
    <url value="Observation/ID921-diastolic"/>
  </request>
</entry>
  <entry>
  <resource>
    
    
  <Observation>
    <id value="ID922-bp"/>
    <text>
      <status value="generated"/>
      <div xmlns="http://www.w3.org/1999/xhtml">2006-04-04: Blood pressure 73/39 mmHg</div>
    </text>
    <code>
      <coding>
        <system value="http://loinc.org"/>
        <code value="55284-4"/>
        <display value="Blood pressure systolic and diastolic"/>
      </coding>
    </code>
    <effectiveDateTime value="2006-04-04"/>
    <status value="final"/>
    <reliability value="ok"/>
    <subject>
      <reference value="Patient/ID880378"/>
    </subject>
    <related>
      <type value="has-component"/>
      <target>
        <reference value="Observation/ID922-systolic"/>
      </target>
    </related>
    <related>
      <type value="has-component"/>
      <target>
        <reference value="Observation/ID922-diastolic"/>
      </target>
    </related>
    <encounter>
      <reference value="Encounter/ID922"/>
    </encounter>
    

  </Observation>
  
  </resource>
  <request>
    <method value="PUT"/>
    <url value="Observation/ID922-bp"/>
  </request>
</entry>
<entry>
  <resource>
    
    
  <Observation>
  <id value="ID922-systolic"/>
    <text>
      <status value="generated"/>
      <div xmlns="http://www.w3.org/1999/xhtml">2006-04-04: Systolic blood pressure = 73 mm[Hg]</div>
    </text>
    <code>
      <coding>
        <system value="http://loinc.org"/>
        <code value="8480-6"/>
        <display value="Systolic blood pressure"/>
      </coding>
    </code>
    <valueQuantity>
      <value value="73.0"/>
      <unit value="mm[Hg]"/>
      <system value="http://unitsofmeasure.org" />
      <code value="mm[Hg]"/>
    </valueQuantity>
    
    <effectiveDateTime value="2006-04-04"/>
    <status value="final"/>
    <reliability value="ok"/>
    <subject>
      <reference value="Patient/ID880378"/>
    </subject>
  </Observation>
  
  </resource>
  <request>
    <method value="PUT"/>
    <url value="Observation/ID922-systolic"/>
  </request>
</entry>
<entry>
  <resource>
    
    
  <Observation>
  <id value="ID922-diastolic"/>
    <text>
      <status value="generated"/>
      <div xmlns="http://www.w3.org/1999/xhtml">2006-04-04: Diastolic blood pressure = 39 mm[Hg]</div>
    </text>
    <code>
      <coding>
        <system value="http://loinc.org"/>
        <code value="8462-4"/>
        <display value="Diastolic blood pressure"/>
      </coding>
    </code>
    <valueQuantity>
      <value value="39.0"/>
      <unit value="mm[Hg]"/>
      <system value="http://unitsofmeasure.org" />
      <code value="mm[Hg]"/>
    </valueQuantity>
    
    <effectiveDateTime value="2006-04-04"/>
    <status value="final"/>
    <reliability value="ok"/>
    <subject>
      <reference value="Patient/ID880378"/>
    </subject>
  </Observation>
  
  </resource>
  <request>
    <method value="PUT"/>
    <url value="Observation/ID922-diastolic"/>
  </request>
</entry>
  <entry>
  <resource>
    
    
  <Observation>
    <id value="ID923-bp"/>
    <text>
      <status value="generated"/>
      <div xmlns="http://www.w3.org/1999/xhtml">2006-04-05: Blood pressure 60/28 mmHg</div>
    </text>
    <code>
      <coding>
        <system value="http://loinc.org"/>
        <code value="55284-4"/>
        <display value="Blood pressure systolic and diastolic"/>
      </coding>
    </code>
    <effectiveDateTime value="2006-04-05"/>
    <status value="final"/>
    <reliability value="ok"/>
    <subject>
      <reference value="Patient/ID880378"/>
    </subject>
    <related>
      <type value="has-component"/>
      <target>
        <reference value="Observation/ID923-systolic"/>
      </target>
    </related>
    <related>
      <type value="has-component"/>
      <target>
        <reference value="Observation/ID923-diastolic"/>
      </target>
    </related>
    <encounter>
      <reference value="Encounter/ID923"/>
    </encounter>
    

  </Observation>
  
  </resource>
  <request>
    <method value="PUT"/>
    <url value="Observation/ID923-bp"/>
  </request>
</entry>
<entry>
  <resource>
    
    
  <Observation>
  <id value="ID923-systolic"/>
    <text>
      <status value="generated"/>
      <div xmlns="http://www.w3.org/1999/xhtml">2006-04-05: Systolic blood pressure = 60 mm[Hg]</div>
    </text>
    <code>
      <coding>
        <system value="http://loinc.org"/>
        <code value="8480-6"/>
        <display value="Systolic blood pressure"/>
      </coding>
    </code>
    <valueQuantity>
      <value value="60.0"/>
      <unit value="mm[Hg]"/>
      <system value="http://unitsofmeasure.org" />
      <code value="mm[Hg]"/>
    </valueQuantity>
    
    <effectiveDateTime value="2006-04-05"/>
    <status value="final"/>
    <reliability value="ok"/>
    <subject>
      <reference value="Patient/ID880378"/>
    </subject>
  </Observation>
  
  </resource>
  <request>
    <method value="PUT"/>
    <url value="Observation/ID923-systolic"/>
  </request>
</entry>
<entry>
  <resource>
    
    
  <Observation>
  <id value="ID923-diastolic"/>
    <text>
      <status value="generated"/>
      <div xmlns="http://www.w3.org/1999/xhtml">2006-04-05: Diastolic blood pressure = 28 mm[Hg]</div>
    </text>
    <code>
      <coding>
        <system value="http://loinc.org"/>
        <code value="8462-4"/>
        <display value="Diastolic blood pressure"/>
      </coding>
    </code>
    <valueQuantity>
      <value value="28.0"/>
      <unit value="mm[Hg]"/>
      <system value="http://unitsofmeasure.org" />
      <code value="mm[Hg]"/>
    </valueQuantity>
    
    <effectiveDateTime value="2006-04-05"/>
    <status value="final"/>
    <reliability value="ok"/>
    <subject>
      <reference value="Patient/ID880378"/>
    </subject>
  </Observation>
  
  </resource>
  <request>
    <method value="PUT"/>
    <url value="Observation/ID923-diastolic"/>
  </request>
</entry>
  <entry>
  <resource>
    
    
  <Observation>
    <id value="ID924-bp"/>
    <text>
      <status value="generated"/>
      <div xmlns="http://www.w3.org/1999/xhtml">2006-04-24: Blood pressure 62/29 mmHg</div>
    </text>
    <code>
      <coding>
        <system value="http://loinc.org"/>
        <code value="55284-4"/>
        <display value="Blood pressure systolic and diastolic"/>
      </coding>
    </code>
    <effectiveDateTime value="2006-04-24"/>
    <status value="final"/>
    <reliability value="ok"/>
    <subject>
      <reference value="Patient/ID880378"/>
    </subject>
    <related>
      <type value="has-component"/>
      <target>
        <reference value="Observation/ID924-systolic"/>
      </target>
    </related>
    <related>
      <type value="has-component"/>
      <target>
        <reference value="Observation/ID924-diastolic"/>
      </target>
    </related>
    <encounter>
      <reference value="Encounter/ID924"/>
    </encounter>
    

  </Observation>
  
  </resource>
  <request>
    <method value="PUT"/>
    <url value="Observation/ID924-bp"/>
  </request>
</entry>
<entry>
  <resource>
    
    
  <Observation>
  <id value="ID924-systolic"/>
    <text>
      <status value="generated"/>
      <div xmlns="http://www.w3.org/1999/xhtml">2006-04-24: Systolic blood pressure = 62 mm[Hg]</div>
    </text>
    <code>
      <coding>
        <system value="http://loinc.org"/>
        <code value="8480-6"/>
        <display value="Systolic blood pressure"/>
      </coding>
    </code>
    <valueQuantity>
      <value value="62.0"/>
      <unit value="mm[Hg]"/>
      <system value="http://unitsofmeasure.org" />
      <code value="mm[Hg]"/>
    </valueQuantity>
    
    <effectiveDateTime value="2006-04-24"/>
    <status value="final"/>
    <reliability value="ok"/>
    <subject>
      <reference value="Patient/ID880378"/>
    </subject>
  </Observation>
  
  </resource>
  <request>
    <method value="PUT"/>
    <url value="Observation/ID924-systolic"/>
  </request>
</entry>
<entry>
  <resource>
    
    
  <Observation>
  <id value="ID924-diastolic"/>
    <text>
      <status value="generated"/>
      <div xmlns="http://www.w3.org/1999/xhtml">2006-04-24: Diastolic blood pressure = 29 mm[Hg]</div>
    </text>
    <code>
      <coding>
        <system value="http://loinc.org"/>
        <code value="8462-4"/>
        <display value="Diastolic blood pressure"/>
      </coding>
    </code>
    <valueQuantity>
      <value value="29.0"/>
      <unit value="mm[Hg]"/>
      <system value="http://unitsofmeasure.org" />
      <code value="mm[Hg]"/>
    </valueQuantity>
    
    <effectiveDateTime value="2006-04-24"/>
    <status value="final"/>
    <reliability value="ok"/>
    <subject>
      <reference value="Patient/ID880378"/>
    </subject>
  </Observation>
  
  </resource>
  <request>
    <method value="PUT"/>
    <url value="Observation/ID924-diastolic"/>
  </request>
</entry>
  <entry>
  <resource>
    
    
  <Observation>
    <id value="ID925-bp"/>
    <text>
      <status value="generated"/>
      <div xmlns="http://www.w3.org/1999/xhtml">2006-07-06: Blood pressure 102/64 mmHg</div>
    </text>
    <code>
      <coding>
        <system value="http://loinc.org"/>
        <code value="55284-4"/>
        <display value="Blood pressure systolic and diastolic"/>
      </coding>
    </code>
    <effectiveDateTime value="2006-07-06"/>
    <status value="final"/>
    <reliability value="ok"/>
    <subject>
      <reference value="Patient/ID880378"/>
    </subject>
    <related>
      <type value="has-component"/>
      <target>
        <reference value="Observation/ID925-systolic"/>
      </target>
    </related>
    <related>
      <type value="has-component"/>
      <target>
        <reference value="Observation/ID925-diastolic"/>
      </target>
    </related>
    <encounter>
      <reference value="Encounter/ID925"/>
    </encounter>
    

  </Observation>
  
  </resource>
  <request>
    <method value="PUT"/>
    <url value="Observation/ID925-bp"/>
  </request>
</entry>
<entry>
  <resource>
    
    
  <Observation>
  <id value="ID925-systolic"/>
    <text>
      <status value="generated"/>
      <div xmlns="http://www.w3.org/1999/xhtml">2006-07-06: Systolic blood pressure = 102 mm[Hg]</div>
    </text>
    <code>
      <coding>
        <system value="http://loinc.org"/>
        <code value="8480-6"/>
        <display value="Systolic blood pressure"/>
      </coding>
    </code>
    <valueQuantity>
      <value value="102.0"/>
      <unit value="mm[Hg]"/>
      <system value="http://unitsofmeasure.org" />
      <code value="mm[Hg]"/>
    </valueQuantity>
    
    <effectiveDateTime value="2006-07-06"/>
    <status value="final"/>
    <reliability value="ok"/>
    <subject>
      <reference value="Patient/ID880378"/>
    </subject>
  </Observation>
  
  </resource>
  <request>
    <method value="PUT"/>
    <url value="Observation/ID925-systolic"/>
  </request>
</entry>
<entry>
  <resource>
    
    
  <Observation>
  <id value="ID925-diastolic"/>
    <text>
      <status value="generated"/>
      <div xmlns="http://www.w3.org/1999/xhtml">2006-07-06: Diastolic blood pressure = 64 mm[Hg]</div>
    </text>
    <code>
      <coding>
        <system value="http://loinc.org"/>
        <code value="8462-4"/>
        <display value="Diastolic blood pressure"/>
      </coding>
    </code>
    <valueQuantity>
      <value value="64.0"/>
      <unit value="mm[Hg]"/>
      <system value="http://unitsofmeasure.org" />
      <code value="mm[Hg]"/>
    </valueQuantity>
    
    <effectiveDateTime value="2006-07-06"/>
    <status value="final"/>
    <reliability value="ok"/>
    <subject>
      <reference value="Patient/ID880378"/>
    </subject>
  </Observation>
  
  </resource>
  <request>
    <method value="PUT"/>
    <url value="Observation/ID925-diastolic"/>
  </request>
</entry>
  <entry>
  <resource>
    
    
  <Observation>
    <id value="ID926-bp"/>
    <text>
      <status value="generated"/>
      <div xmlns="http://www.w3.org/1999/xhtml">2006-07-07: Blood pressure 54/23 mmHg</div>
    </text>
    <code>
      <coding>
        <system value="http://loinc.org"/>
        <code value="55284-4"/>
        <display value="Blood pressure systolic and diastolic"/>
      </coding>
    </code>
    <effectiveDateTime value="2006-07-07"/>
    <status value="final"/>
    <reliability value="ok"/>
    <subject>
      <reference value="Patient/ID880378"/>
    </subject>
    <related>
      <type value="has-component"/>
      <target>
        <reference value="Observation/ID926-systolic"/>
      </target>
    </related>
    <related>
      <type value="has-component"/>
      <target>
        <reference value="Observation/ID926-diastolic"/>
      </target>
    </related>
    <encounter>
      <reference value="Encounter/ID926"/>
    </encounter>
    

  </Observation>
  
  </resource>
  <request>
    <method value="PUT"/>
    <url value="Observation/ID926-bp"/>
  </request>
</entry>
<entry>
  <resource>
    
    
  <Observation>
  <id value="ID926-systolic"/>
    <text>
      <status value="generated"/>
      <div xmlns="http://www.w3.org/1999/xhtml">2006-07-07: Systolic blood pressure = 54 mm[Hg]</div>
    </text>
    <code>
      <coding>
        <system value="http://loinc.org"/>
        <code value="8480-6"/>
        <display value="Systolic blood pressure"/>
      </coding>
    </code>
    <valueQuantity>
      <value value="54.0"/>
      <unit value="mm[Hg]"/>
      <system value="http://unitsofmeasure.org" />
      <code value="mm[Hg]"/>
    </valueQuantity>
    
    <effectiveDateTime value="2006-07-07"/>
    <status value="final"/>
    <reliability value="ok"/>
    <subject>
      <reference value="Patient/ID880378"/>
    </subject>
  </Observation>
  
  </resource>
  <request>
    <method value="PUT"/>
    <url value="Observation/ID926-systolic"/>
  </request>
</entry>
<entry>
  <resource>
    
    
  <Observation>
  <id value="ID926-diastolic"/>
    <text>
      <status value="generated"/>
      <div xmlns="http://www.w3.org/1999/xhtml">2006-07-07: Diastolic blood pressure = 23 mm[Hg]</div>
    </text>
    <code>
      <coding>
        <system value="http://loinc.org"/>
        <code value="8462-4"/>
        <display value="Diastolic blood pressure"/>
      </coding>
    </code>
    <valueQuantity>
      <value value="23.0"/>
      <unit value="mm[Hg]"/>
      <system value="http://unitsofmeasure.org" />
      <code value="mm[Hg]"/>
    </valueQuantity>
    
    <effectiveDateTime value="2006-07-07"/>
    <status value="final"/>
    <reliability value="ok"/>
    <subject>
      <reference value="Patient/ID880378"/>
    </subject>
  </Observation>
  
  </resource>
  <request>
    <method value="PUT"/>
    <url value="Observation/ID926-diastolic"/>
  </request>
</entry>
  <entry>
  <resource>
    
    
  <Observation>
    <id value="ID927-bp"/>
    <text>
      <status value="generated"/>
      <div xmlns="http://www.w3.org/1999/xhtml">2007-02-16: Blood pressure 108/67 mmHg</div>
    </text>
    <code>
      <coding>
        <system value="http://loinc.org"/>
        <code value="55284-4"/>
        <display value="Blood pressure systolic and diastolic"/>
      </coding>
    </code>
    <effectiveDateTime value="2007-02-16"/>
    <status value="final"/>
    <reliability value="ok"/>
    <subject>
      <reference value="Patient/ID880378"/>
    </subject>
    <related>
      <type value="has-component"/>
      <target>
        <reference value="Observation/ID927-systolic"/>
      </target>
    </related>
    <related>
      <type value="has-component"/>
      <target>
        <reference value="Observation/ID927-diastolic"/>
      </target>
    </related>
    <encounter>
      <reference value="Encounter/ID927"/>
    </encounter>
    

  </Observation>
  
  </resource>
  <request>
    <method value="PUT"/>
    <url value="Observation/ID927-bp"/>
  </request>
</entry>
<entry>
  <resource>
    
    
  <Observation>
  <id value="ID927-systolic"/>
    <text>
      <status value="generated"/>
      <div xmlns="http://www.w3.org/1999/xhtml">2007-02-16: Systolic blood pressure = 108 mm[Hg]</div>
    </text>
    <code>
      <coding>
        <system value="http://loinc.org"/>
        <code value="8480-6"/>
        <display value="Systolic blood pressure"/>
      </coding>
    </code>
    <valueQuantity>
      <value value="108.0"/>
      <unit value="mm[Hg]"/>
      <system value="http://unitsofmeasure.org" />
      <code value="mm[Hg]"/>
    </valueQuantity>
    
    <effectiveDateTime value="2007-02-16"/>
    <status value="final"/>
    <reliability value="ok"/>
    <subject>
      <reference value="Patient/ID880378"/>
    </subject>
  </Observation>
  
  </resource>
  <request>
    <method value="PUT"/>
    <url value="Observation/ID927-systolic"/>
  </request>
</entry>
<entry>
  <resource>
    
    
  <Observation>
  <id value="ID927-diastolic"/>
    <text>
      <status value="generated"/>
      <div xmlns="http://www.w3.org/1999/xhtml">2007-02-16: Diastolic blood pressure = 67 mm[Hg]</div>
    </text>
    <code>
      <coding>
        <system value="http://loinc.org"/>
        <code value="8462-4"/>
        <display value="Diastolic blood pressure"/>
      </coding>
    </code>
    <valueQuantity>
      <value value="67.0"/>
      <unit value="mm[Hg]"/>
      <system value="http://unitsofmeasure.org" />
      <code value="mm[Hg]"/>
    </valueQuantity>
    
    <effectiveDateTime value="2007-02-16"/>
    <status value="final"/>
    <reliability value="ok"/>
    <subject>
      <reference value="Patient/ID880378"/>
    </subject>
  </Observation>
  
  </resource>
  <request>
    <method value="PUT"/>
    <url value="Observation/ID927-diastolic"/>
  </request>
</entry>
  <entry>
  <resource>
    
    
  <Observation>
    <id value="ID928-bp"/>
    <text>
      <status value="generated"/>
      <div xmlns="http://www.w3.org/1999/xhtml">2007-02-23: Blood pressure 81/47 mmHg</div>
    </text>
    <code>
      <coding>
        <system value="http://loinc.org"/>
        <code value="55284-4"/>
        <display value="Blood pressure systolic and diastolic"/>
      </coding>
    </code>
    <effectiveDateTime value="2007-02-23"/>
    <status value="final"/>
    <reliability value="ok"/>
    <subject>
      <reference value="Patient/ID880378"/>
    </subject>
    <related>
      <type value="has-component"/>
      <target>
        <reference value="Observation/ID928-systolic"/>
      </target>
    </related>
    <related>
      <type value="has-component"/>
      <target>
        <reference value="Observation/ID928-diastolic"/>
      </target>
    </related>
    <encounter>
      <reference value="Encounter/ID928"/>
    </encounter>
    

  </Observation>
  
  </resource>
  <request>
    <method value="PUT"/>
    <url value="Observation/ID928-bp"/>
  </request>
</entry>
<entry>
  <resource>
    
    
  <Observation>
  <id value="ID928-systolic"/>
    <text>
      <status value="generated"/>
      <div xmlns="http://www.w3.org/1999/xhtml">2007-02-23: Systolic blood pressure = 81 mm[Hg]</div>
    </text>
    <code>
      <coding>
        <system value="http://loinc.org"/>
        <code value="8480-6"/>
        <display value="Systolic blood pressure"/>
      </coding>
    </code>
    <valueQuantity>
      <value value="81.0"/>
      <unit value="mm[Hg]"/>
      <system value="http://unitsofmeasure.org" />
      <code value="mm[Hg]"/>
    </valueQuantity>
    
    <effectiveDateTime value="2007-02-23"/>
    <status value="final"/>
    <reliability value="ok"/>
    <subject>
      <reference value="Patient/ID880378"/>
    </subject>
  </Observation>
  
  </resource>
  <request>
    <method value="PUT"/>
    <url value="Observation/ID928-systolic"/>
  </request>
</entry>
<entry>
  <resource>
    
    
  <Observation>
  <id value="ID928-diastolic"/>
    <text>
      <status value="generated"/>
      <div xmlns="http://www.w3.org/1999/xhtml">2007-02-23: Diastolic blood pressure = 47 mm[Hg]</div>
    </text>
    <code>
      <coding>
        <system value="http://loinc.org"/>
        <code value="8462-4"/>
        <display value="Diastolic blood pressure"/>
      </coding>
    </code>
    <valueQuantity>
      <value value="47.0"/>
      <unit value="mm[Hg]"/>
      <system value="http://unitsofmeasure.org" />
      <code value="mm[Hg]"/>
    </valueQuantity>
    
    <effectiveDateTime value="2007-02-23"/>
    <status value="final"/>
    <reliability value="ok"/>
    <subject>
      <reference value="Patient/ID880378"/>
    </subject>
  </Observation>
  
  </resource>
  <request>
    <method value="PUT"/>
    <url value="Observation/ID928-diastolic"/>
  </request>
</entry>
  <entry>
  <resource>
    
    
  <Observation>
    <id value="ID929-bp"/>
    <text>
      <status value="generated"/>
      <div xmlns="http://www.w3.org/1999/xhtml">2007-11-15: Blood pressure 107/67 mmHg</div>
    </text>
    <code>
      <coding>
        <system value="http://loinc.org"/>
        <code value="55284-4"/>
        <display value="Blood pressure systolic and diastolic"/>
      </coding>
    </code>
    <effectiveDateTime value="2007-11-15"/>
    <status value="final"/>
    <reliability value="ok"/>
    <subject>
      <reference value="Patient/ID880378"/>
    </subject>
    <related>
      <type value="has-component"/>
      <target>
        <reference value="Observation/ID929-systolic"/>
      </target>
    </related>
    <related>
      <type value="has-component"/>
      <target>
        <reference value="Observation/ID929-diastolic"/>
      </target>
    </related>
    <encounter>
      <reference value="Encounter/ID929"/>
    </encounter>
    

  </Observation>
  
  </resource>
  <request>
    <method value="PUT"/>
    <url value="Observation/ID929-bp"/>
  </request>
</entry>
<entry>
  <resource>
    
    
  <Observation>
  <id value="ID929-systolic"/>
    <text>
      <status value="generated"/>
      <div xmlns="http://www.w3.org/1999/xhtml">2007-11-15: Systolic blood pressure = 107 mm[Hg]</div>
    </text>
    <code>
      <coding>
        <system value="http://loinc.org"/>
        <code value="8480-6"/>
        <display value="Systolic blood pressure"/>
      </coding>
    </code>
    <valueQuantity>
      <value value="107.0"/>
      <unit value="mm[Hg]"/>
      <system value="http://unitsofmeasure.org" />
      <code value="mm[Hg]"/>
    </valueQuantity>
    
    <effectiveDateTime value="2007-11-15"/>
    <status value="final"/>
    <reliability value="ok"/>
    <subject>
      <reference value="Patient/ID880378"/>
    </subject>
  </Observation>
  
  </resource>
  <request>
    <method value="PUT"/>
    <url value="Observation/ID929-systolic"/>
  </request>
</entry>
<entry>
  <resource>
    
    
  <Observation>
  <id value="ID929-diastolic"/>
    <text>
      <status value="generated"/>
      <div xmlns="http://www.w3.org/1999/xhtml">2007-11-15: Diastolic blood pressure = 67 mm[Hg]</div>
    </text>
    <code>
      <coding>
        <system value="http://loinc.org"/>
        <code value="8462-4"/>
        <display value="Diastolic blood pressure"/>
      </coding>
    </code>
    <valueQuantity>
      <value value="67.0"/>
      <unit value="mm[Hg]"/>
      <system value="http://unitsofmeasure.org" />
      <code value="mm[Hg]"/>
    </valueQuantity>
    
    <effectiveDateTime value="2007-11-15"/>
    <status value="final"/>
    <reliability value="ok"/>
    <subject>
      <reference value="Patient/ID880378"/>
    </subject>
  </Observation>
  
  </resource>
  <request>
    <method value="PUT"/>
    <url value="Observation/ID929-diastolic"/>
  </request>
</entry>
  <entry>
  <resource>
    
    
  <Observation>
    <id value="ID930-bp"/>
    <text>
      <status value="generated"/>
      <div xmlns="http://www.w3.org/1999/xhtml">2008-01-16: Blood pressure 78/44 mmHg</div>
    </text>
    <code>
      <coding>
        <system value="http://loinc.org"/>
        <code value="55284-4"/>
        <display value="Blood pressure systolic and diastolic"/>
      </coding>
    </code>
    <effectiveDateTime value="2008-01-16"/>
    <status value="final"/>
    <reliability value="ok"/>
    <subject>
      <reference value="Patient/ID880378"/>
    </subject>
    <related>
      <type value="has-component"/>
      <target>
        <reference value="Observation/ID930-systolic"/>
      </target>
    </related>
    <related>
      <type value="has-component"/>
      <target>
        <reference value="Observation/ID930-diastolic"/>
      </target>
    </related>
    <encounter>
      <reference value="Encounter/ID930"/>
    </encounter>
    

  </Observation>
  
  </resource>
  <request>
    <method value="PUT"/>
    <url value="Observation/ID930-bp"/>
  </request>
</entry>
<entry>
  <resource>
    
    
  <Observation>
  <id value="ID930-systolic"/>
    <text>
      <status value="generated"/>
      <div xmlns="http://www.w3.org/1999/xhtml">2008-01-16: Systolic blood pressure = 78 mm[Hg]</div>
    </text>
    <code>
      <coding>
        <system value="http://loinc.org"/>
        <code value="8480-6"/>
        <display value="Systolic blood pressure"/>
      </coding>
    </code>
    <valueQuantity>
      <value value="78.0"/>
      <unit value="mm[Hg]"/>
      <system value="http://unitsofmeasure.org" />
      <code value="mm[Hg]"/>
    </valueQuantity>
    
    <effectiveDateTime value="2008-01-16"/>
    <status value="final"/>
    <reliability value="ok"/>
    <subject>
      <reference value="Patient/ID880378"/>
    </subject>
  </Observation>
  
  </resource>
  <request>
    <method value="PUT"/>
    <url value="Observation/ID930-systolic"/>
  </request>
</entry>
<entry>
  <resource>
    
    
  <Observation>
  <id value="ID930-diastolic"/>
    <text>
      <status value="generated"/>
      <div xmlns="http://www.w3.org/1999/xhtml">2008-01-16: Diastolic blood pressure = 44 mm[Hg]</div>
    </text>
    <code>
      <coding>
        <system value="http://loinc.org"/>
        <code value="8462-4"/>
        <display value="Diastolic blood pressure"/>
      </coding>
    </code>
    <valueQuantity>
      <value value="44.0"/>
      <unit value="mm[Hg]"/>
      <system value="http://unitsofmeasure.org" />
      <code value="mm[Hg]"/>
    </valueQuantity>
    
    <effectiveDateTime value="2008-01-16"/>
    <status value="final"/>
    <reliability value="ok"/>
    <subject>
      <reference value="Patient/ID880378"/>
    </subject>
  </Observation>
  
  </resource>
  <request>
    <method value="PUT"/>
    <url value="Observation/ID930-diastolic"/>
  </request>
</entry>
  <entry>
  <resource>
    
    
  <Observation>
    <id value="ID931-bp"/>
    <text>
      <status value="generated"/>
      <div xmlns="http://www.w3.org/1999/xhtml">2008-01-17: Blood pressure 105/65 mmHg</div>
    </text>
    <code>
      <coding>
        <system value="http://loinc.org"/>
        <code value="55284-4"/>
        <display value="Blood pressure systolic and diastolic"/>
      </coding>
    </code>
    <effectiveDateTime value="2008-01-17"/>
    <status value="final"/>
    <reliability value="ok"/>
    <subject>
      <reference value="Patient/ID880378"/>
    </subject>
    <related>
      <type value="has-component"/>
      <target>
        <reference value="Observation/ID931-systolic"/>
      </target>
    </related>
    <related>
      <type value="has-component"/>
      <target>
        <reference value="Observation/ID931-diastolic"/>
      </target>
    </related>
    <encounter>
      <reference value="Encounter/ID931"/>
    </encounter>
    

  </Observation>
  
  </resource>
  <request>
    <method value="PUT"/>
    <url value="Observation/ID931-bp"/>
  </request>
</entry>
<entry>
  <resource>
    
    
  <Observation>
  <id value="ID931-systolic"/>
    <text>
      <status value="generated"/>
      <div xmlns="http://www.w3.org/1999/xhtml">2008-01-17: Systolic blood pressure = 105 mm[Hg]</div>
    </text>
    <code>
      <coding>
        <system value="http://loinc.org"/>
        <code value="8480-6"/>
        <display value="Systolic blood pressure"/>
      </coding>
    </code>
    <valueQuantity>
      <value value="105.0"/>
      <unit value="mm[Hg]"/>
      <system value="http://unitsofmeasure.org" />
      <code value="mm[Hg]"/>
    </valueQuantity>
    
    <effectiveDateTime value="2008-01-17"/>
    <status value="final"/>
    <reliability value="ok"/>
    <subject>
      <reference value="Patient/ID880378"/>
    </subject>
  </Observation>
  
  </resource>
  <request>
    <method value="PUT"/>
    <url value="Observation/ID931-systolic"/>
  </request>
</entry>
<entry>
  <resource>
    
    
  <Observation>
  <id value="ID931-diastolic"/>
    <text>
      <status value="generated"/>
      <div xmlns="http://www.w3.org/1999/xhtml">2008-01-17: Diastolic blood pressure = 65 mm[Hg]</div>
    </text>
    <code>
      <coding>
        <system value="http://loinc.org"/>
        <code value="8462-4"/>
        <display value="Diastolic blood pressure"/>
      </coding>
    </code>
    <valueQuantity>
      <value value="65.0"/>
      <unit value="mm[Hg]"/>
      <system value="http://unitsofmeasure.org" />
      <code value="mm[Hg]"/>
    </valueQuantity>
    
    <effectiveDateTime value="2008-01-17"/>
    <status value="final"/>
    <reliability value="ok"/>
    <subject>
      <reference value="Patient/ID880378"/>
    </subject>
  </Observation>
  
  </resource>
  <request>
    <method value="PUT"/>
    <url value="Observation/ID931-diastolic"/>
  </request>
</entry>
  <entry>
  <resource>
    
    
  <Observation>
    <id value="ID932-bp"/>
    <text>
      <status value="generated"/>
      <div xmlns="http://www.w3.org/1999/xhtml">2008-03-10: Blood pressure 69/37 mmHg</div>
    </text>
    <code>
      <coding>
        <system value="http://loinc.org"/>
        <code value="55284-4"/>
        <display value="Blood pressure systolic and diastolic"/>
      </coding>
    </code>
    <effectiveDateTime value="2008-03-10"/>
    <status value="final"/>
    <reliability value="ok"/>
    <subject>
      <reference value="Patient/ID880378"/>
    </subject>
    <related>
      <type value="has-component"/>
      <target>
        <reference value="Observation/ID932-systolic"/>
      </target>
    </related>
    <related>
      <type value="has-component"/>
      <target>
        <reference value="Observation/ID932-diastolic"/>
      </target>
    </related>
    <encounter>
      <reference value="Encounter/ID932"/>
    </encounter>
    

  </Observation>
  
  </resource>
  <request>
    <method value="PUT"/>
    <url value="Observation/ID932-bp"/>
  </request>
</entry>
<entry>
  <resource>
    
    
  <Observation>
  <id value="ID932-systolic"/>
    <text>
      <status value="generated"/>
      <div xmlns="http://www.w3.org/1999/xhtml">2008-03-10: Systolic blood pressure = 69 mm[Hg]</div>
    </text>
    <code>
      <coding>
        <system value="http://loinc.org"/>
        <code value="8480-6"/>
        <display value="Systolic blood pressure"/>
      </coding>
    </code>
    <valueQuantity>
      <value value="69.0"/>
      <unit value="mm[Hg]"/>
      <system value="http://unitsofmeasure.org" />
      <code value="mm[Hg]"/>
    </valueQuantity>
    
    <effectiveDateTime value="2008-03-10"/>
    <status value="final"/>
    <reliability value="ok"/>
    <subject>
      <reference value="Patient/ID880378"/>
    </subject>
  </Observation>
  
  </resource>
  <request>
    <method value="PUT"/>
    <url value="Observation/ID932-systolic"/>
  </request>
</entry>
<entry>
  <resource>
    
    
  <Observation>
  <id value="ID932-diastolic"/>
    <text>
      <status value="generated"/>
      <div xmlns="http://www.w3.org/1999/xhtml">2008-03-10: Diastolic blood pressure = 37 mm[Hg]</div>
    </text>
    <code>
      <coding>
        <system value="http://loinc.org"/>
        <code value="8462-4"/>
        <display value="Diastolic blood pressure"/>
      </coding>
    </code>
    <valueQuantity>
      <value value="37.0"/>
      <unit value="mm[Hg]"/>
      <system value="http://unitsofmeasure.org" />
      <code value="mm[Hg]"/>
    </valueQuantity>
    
    <effectiveDateTime value="2008-03-10"/>
    <status value="final"/>
    <reliability value="ok"/>
    <subject>
      <reference value="Patient/ID880378"/>
    </subject>
  </Observation>
  
  </resource>
  <request>
    <method value="PUT"/>
    <url value="Observation/ID932-diastolic"/>
  </request>
</entry>
<entry>
  <resource>
    
    
  <Observation>
  <id value="ID914-height"/>
    <text>
      <status value="generated"/>
      <div xmlns="http://www.w3.org/1999/xhtml">2004-05-07: height = 107.95 cm</div>
    </text>
    <code>
      <coding>
        <system value="http://loinc.org"/>
        <code value="8302-2"/>
        <display value="height"/>
      </coding>
    </code>
    <valueQuantity>
      <value value="107.95"/>
      <unit value="cm"/>
      <system value="http://unitsofmeasure.org" />
      <code value="cm"/>
    </valueQuantity>
    
    <effectiveDateTime value="2004-05-07"/>
    <status value="final"/>
    <reliability value="ok"/>
    <subject>
      <reference value="Patient/ID880378"/>
    </subject>
    <encounter>
      <reference value="Encounter/ID914"/>
    </encounter>
    
  </Observation>
  
  </resource>
  <request>
    <method value="PUT"/>
    <url value="Observation/ID914-height"/>
  </request>
</entry>
<entry>
  <resource>
    
    
  <Observation>
  <id value="ID914-heartrate"/>
    <text>
      <status value="generated"/>
      <div xmlns="http://www.w3.org/1999/xhtml">2004-05-07: heart_rate = 47.0 {beats}/min</div>
    </text>
    <code>
      <coding>
        <system value="http://loinc.org"/>
        <code value="8867-4"/>
        <display value="heart_rate"/>
      </coding>
    </code>
    <valueQuantity>
      <value value="47.0"/>
      <unit value="{beats}/min"/>
      <system value="http://unitsofmeasure.org" />
      <code value="{beats}/min"/>
    </valueQuantity>
    
    <effectiveDateTime value="2004-05-07"/>
    <status value="final"/>
    <reliability value="ok"/>
    <subject>
      <reference value="Patient/ID880378"/>
    </subject>
    <encounter>
      <reference value="Encounter/ID914"/>
    </encounter>
    
  </Observation>
  
  </resource>
  <request>
    <method value="PUT"/>
    <url value="Observation/ID914-heartrate"/>
  </request>
</entry>
<entry>
  <resource>
    
    
  <Observation>
  <id value="ID914-respiratoryrate"/>
    <text>
      <status value="generated"/>
      <div xmlns="http://www.w3.org/1999/xhtml">2004-05-07: respiratory_rate = 18.0 {breaths}/min</div>
    </text>
    <code>
      <coding>
        <system value="http://loinc.org"/>
        <code value="9279-1"/>
        <display value="respiratory_rate"/>
      </coding>
    </code>
    <valueQuantity>
      <value value="18.0"/>
      <unit value="{breaths}/min"/>
      <system value="http://unitsofmeasure.org" />
      <code value="{breaths}/min"/>
    </valueQuantity>
    
    <effectiveDateTime value="2004-05-07"/>
    <status value="final"/>
    <reliability value="ok"/>
    <subject>
      <reference value="Patient/ID880378"/>
    </subject>
    <encounter>
      <reference value="Encounter/ID914"/>
    </encounter>
    
  </Observation>
  
  </resource>
  <request>
    <method value="PUT"/>
    <url value="Observation/ID914-respiratoryrate"/>
  </request>
</entry>
<entry>
  <resource>
    
    
  <Observation>
  <id value="ID914-temperature"/>
    <text>
      <status value="generated"/>
      <div xmlns="http://www.w3.org/1999/xhtml">2004-05-07: temperature = 37.44444 Cel</div>
    </text>
    <code>
      <coding>
        <system value="http://loinc.org"/>
        <code value="8310-5"/>
        <display value="temperature"/>
      </coding>
    </code>
    <valueQuantity>
      <value value="37.44444"/>
      <unit value="Cel"/>
      <system value="http://unitsofmeasure.org" />
      <code value="Cel"/>
    </valueQuantity>
    
    <effectiveDateTime value="2004-05-07"/>
    <status value="final"/>
    <reliability value="ok"/>
    <subject>
      <reference value="Patient/ID880378"/>
    </subject>
    <encounter>
      <reference value="Encounter/ID914"/>
    </encounter>
    
  </Observation>
  
  </resource>
  <request>
    <method value="PUT"/>
    <url value="Observation/ID914-temperature"/>
  </request>
</entry>
<entry>
  <resource>
    
    
  <Observation>
  <id value="ID914-weight"/>
    <text>
      <status value="generated"/>
      <div xmlns="http://www.w3.org/1999/xhtml">2004-05-07: weight = 18.05298 kg</div>
    </text>
    <code>
      <coding>
        <system value="http://loinc.org"/>
        <code value="3141-9"/>
        <display value="weight"/>
      </coding>
    </code>
    <valueQuantity>
      <value value="18.05298"/>
      <unit value="kg"/>
      <system value="http://unitsofmeasure.org" />
      <code value="kg"/>
    </valueQuantity>
    
    <effectiveDateTime value="2004-05-07"/>
    <status value="final"/>
    <reliability value="ok"/>
    <subject>
      <reference value="Patient/ID880378"/>
    </subject>
    <encounter>
      <reference value="Encounter/ID914"/>
    </encounter>
    
  </Observation>
  
  </resource>
  <request>
    <method value="PUT"/>
    <url value="Observation/ID914-weight"/>
  </request>
</entry>
<entry>
  <resource>
    
    
  <Observation>
  <id value="ID914-bmi"/>
    <text>
      <status value="generated"/>
      <div xmlns="http://www.w3.org/1999/xhtml">2004-05-07: bmi = 15.5 kg/m2</div>
    </text>
    <code>
      <coding>
        <system value="http://loinc.org"/>
        <code value="39156-5"/>
        <display value="bmi"/>
      </coding>
    </code>
    <valueQuantity>
      <value value="15.5"/>
      <unit value="kg/m2"/>
      <system value="http://unitsofmeasure.org" />
      <code value="kg/m2"/>
    </valueQuantity>
    
    <effectiveDateTime value="2004-05-07"/>
    <status value="final"/>
    <reliability value="ok"/>
    <subject>
      <reference value="Patient/ID880378"/>
    </subject>
    <encounter>
      <reference value="Encounter/ID914"/>
    </encounter>
    
  </Observation>
  
  </resource>
  <request>
    <method value="PUT"/>
    <url value="Observation/ID914-bmi"/>
  </request>
</entry>
<entry>
  <resource>
    
    
  <Observation>
  <id value="ID914-oxygensaturation"/>
    <text>
      <status value="generated"/>
      <div xmlns="http://www.w3.org/1999/xhtml">2004-05-07: oxygen_saturation = 100.0 %{HemoglobinSaturation}</div>
    </text>
    <code>
      <coding>
        <system value="http://loinc.org"/>
        <code value="2710-2"/>
        <display value="oxygen_saturation"/>
      </coding>
    </code>
    <valueQuantity>
      <value value="100.0"/>
      <unit value="%{HemoglobinSaturation}"/>
      <system value="http://unitsofmeasure.org" />
      <code value="%{HemoglobinSaturation}"/>
    </valueQuantity>
    
    <effectiveDateTime value="2004-05-07"/>
    <status value="final"/>
    <reliability value="ok"/>
    <subject>
      <reference value="Patient/ID880378"/>
    </subject>
    <encounter>
      <reference value="Encounter/ID914"/>
    </encounter>
    
  </Observation>
  
  </resource>
  <request>
    <method value="PUT"/>
    <url value="Observation/ID914-oxygensaturation"/>
  </request>
</entry>
<entry>
  <resource>
    
    
  <Observation>
  <id value="ID915-height"/>
    <text>
      <status value="generated"/>
      <div xmlns="http://www.w3.org/1999/xhtml">2004-09-10: height = 107.95 cm</div>
    </text>
    <code>
      <coding>
        <system value="http://loinc.org"/>
        <code value="8302-2"/>
        <display value="height"/>
      </coding>
    </code>
    <valueQuantity>
      <value value="107.95"/>
      <unit value="cm"/>
      <system value="http://unitsofmeasure.org" />
      <code value="cm"/>
    </valueQuantity>
    
    <effectiveDateTime value="2004-09-10"/>
    <status value="final"/>
    <reliability value="ok"/>
    <subject>
      <reference value="Patient/ID880378"/>
    </subject>
    <encounter>
      <reference value="Encounter/ID915"/>
    </encounter>
    
  </Observation>
  
  </resource>
  <request>
    <method value="PUT"/>
    <url value="Observation/ID915-height"/>
  </request>
</entry>
<entry>
  <resource>
    
    
  <Observation>
  <id value="ID915-heartrate"/>
    <text>
      <status value="generated"/>
      <div xmlns="http://www.w3.org/1999/xhtml">2004-09-10: heart_rate = 50.0 {beats}/min</div>
    </text>
    <code>
      <coding>
        <system value="http://loinc.org"/>
        <code value="8867-4"/>
        <display value="heart_rate"/>
      </coding>
    </code>
    <valueQuantity>
      <value value="50.0"/>
      <unit value="{beats}/min"/>
      <system value="http://unitsofmeasure.org" />
      <code value="{beats}/min"/>
    </valueQuantity>
    
    <effectiveDateTime value="2004-09-10"/>
    <status value="final"/>
    <reliability value="ok"/>
    <subject>
      <reference value="Patient/ID880378"/>
    </subject>
    <encounter>
      <reference value="Encounter/ID915"/>
    </encounter>
    
  </Observation>
  
  </resource>
  <request>
    <method value="PUT"/>
    <url value="Observation/ID915-heartrate"/>
  </request>
</entry>
<entry>
  <resource>
    
    
  <Observation>
  <id value="ID915-respiratoryrate"/>
    <text>
      <status value="generated"/>
      <div xmlns="http://www.w3.org/1999/xhtml">2004-09-10: respiratory_rate = 18.0 {breaths}/min</div>
    </text>
    <code>
      <coding>
        <system value="http://loinc.org"/>
        <code value="9279-1"/>
        <display value="respiratory_rate"/>
      </coding>
    </code>
    <valueQuantity>
      <value value="18.0"/>
      <unit value="{breaths}/min"/>
      <system value="http://unitsofmeasure.org" />
      <code value="{breaths}/min"/>
    </valueQuantity>
    
    <effectiveDateTime value="2004-09-10"/>
    <status value="final"/>
    <reliability value="ok"/>
    <subject>
      <reference value="Patient/ID880378"/>
    </subject>
    <encounter>
      <reference value="Encounter/ID915"/>
    </encounter>
    
  </Observation>
  
  </resource>
  <request>
    <method value="PUT"/>
    <url value="Observation/ID915-respiratoryrate"/>
  </request>
</entry>
<entry>
  <resource>
    
    
  <Observation>
  <id value="ID915-temperature"/>
    <text>
      <status value="generated"/>
      <div xmlns="http://www.w3.org/1999/xhtml">2004-09-10: temperature = 37.44444 Cel</div>
    </text>
    <code>
      <coding>
        <system value="http://loinc.org"/>
        <code value="8310-5"/>
        <display value="temperature"/>
      </coding>
    </code>
    <valueQuantity>
      <value value="37.44444"/>
      <unit value="Cel"/>
      <system value="http://unitsofmeasure.org" />
      <code value="Cel"/>
    </valueQuantity>
    
    <effectiveDateTime value="2004-09-10"/>
    <status value="final"/>
    <reliability value="ok"/>
    <subject>
      <reference value="Patient/ID880378"/>
    </subject>
    <encounter>
      <reference value="Encounter/ID915"/>
    </encounter>
    
  </Observation>
  
  </resource>
  <request>
    <method value="PUT"/>
    <url value="Observation/ID915-temperature"/>
  </request>
</entry>
<entry>
  <resource>
    
    
  <Observation>
  <id value="ID915-weight"/>
    <text>
      <status value="generated"/>
      <div xmlns="http://www.w3.org/1999/xhtml">2004-09-10: weight = 18.00762 kg</div>
    </text>
    <code>
      <coding>
        <system value="http://loinc.org"/>
        <code value="3141-9"/>
        <display value="weight"/>
      </coding>
    </code>
    <valueQuantity>
      <value value="18.00762"/>
      <unit value="kg"/>
      <system value="http://unitsofmeasure.org" />
      <code value="kg"/>
    </valueQuantity>
    
    <effectiveDateTime value="2004-09-10"/>
    <status value="final"/>
    <reliability value="ok"/>
    <subject>
      <reference value="Patient/ID880378"/>
    </subject>
    <encounter>
      <reference value="Encounter/ID915"/>
    </encounter>
    
  </Observation>
  
  </resource>
  <request>
    <method value="PUT"/>
    <url value="Observation/ID915-weight"/>
  </request>
</entry>
<entry>
  <resource>
    
    
  <Observation>
  <id value="ID915-bmi"/>
    <text>
      <status value="generated"/>
      <div xmlns="http://www.w3.org/1999/xhtml">2004-09-10: bmi = 15.4 kg/m2</div>
    </text>
    <code>
      <coding>
        <system value="http://loinc.org"/>
        <code value="39156-5"/>
        <display value="bmi"/>
      </coding>
    </code>
    <valueQuantity>
      <value value="15.4"/>
      <unit value="kg/m2"/>
      <system value="http://unitsofmeasure.org" />
      <code value="kg/m2"/>
    </valueQuantity>
    
    <effectiveDateTime value="2004-09-10"/>
    <status value="final"/>
    <reliability value="ok"/>
    <subject>
      <reference value="Patient/ID880378"/>
    </subject>
    <encounter>
      <reference value="Encounter/ID915"/>
    </encounter>
    
  </Observation>
  
  </resource>
  <request>
    <method value="PUT"/>
    <url value="Observation/ID915-bmi"/>
  </request>
</entry>
<entry>
  <resource>
    
    
  <Observation>
  <id value="ID915-oxygensaturation"/>
    <text>
      <status value="generated"/>
      <div xmlns="http://www.w3.org/1999/xhtml">2004-09-10: oxygen_saturation = 100.0 %{HemoglobinSaturation}</div>
    </text>
    <code>
      <coding>
        <system value="http://loinc.org"/>
        <code value="2710-2"/>
        <display value="oxygen_saturation"/>
      </coding>
    </code>
    <valueQuantity>
      <value value="100.0"/>
      <unit value="%{HemoglobinSaturation}"/>
      <system value="http://unitsofmeasure.org" />
      <code value="%{HemoglobinSaturation}"/>
    </valueQuantity>
    
    <effectiveDateTime value="2004-09-10"/>
    <status value="final"/>
    <reliability value="ok"/>
    <subject>
      <reference value="Patient/ID880378"/>
    </subject>
    <encounter>
      <reference value="Encounter/ID915"/>
    </encounter>
    
  </Observation>
  
  </resource>
  <request>
    <method value="PUT"/>
    <url value="Observation/ID915-oxygensaturation"/>
  </request>
</entry>
<entry>
  <resource>
    
    
  <Observation>
  <id value="ID916-height"/>
    <text>
      <status value="generated"/>
      <div xmlns="http://www.w3.org/1999/xhtml">2004-09-13: height = 107.95 cm</div>
    </text>
    <code>
      <coding>
        <system value="http://loinc.org"/>
        <code value="8302-2"/>
        <display value="height"/>
      </coding>
    </code>
    <valueQuantity>
      <value value="107.95"/>
      <unit value="cm"/>
      <system value="http://unitsofmeasure.org" />
      <code value="cm"/>
    </valueQuantity>
    
    <effectiveDateTime value="2004-09-13"/>
    <status value="final"/>
    <reliability value="ok"/>
    <subject>
      <reference value="Patient/ID880378"/>
    </subject>
    <encounter>
      <reference value="Encounter/ID916"/>
    </encounter>
    
  </Observation>
  
  </resource>
  <request>
    <method value="PUT"/>
    <url value="Observation/ID916-height"/>
  </request>
</entry>
<entry>
  <resource>
    
    
  <Observation>
  <id value="ID916-heartrate"/>
    <text>
      <status value="generated"/>
      <div xmlns="http://www.w3.org/1999/xhtml">2004-09-13: heart_rate = 60.0 {beats}/min</div>
    </text>
    <code>
      <coding>
        <system value="http://loinc.org"/>
        <code value="8867-4"/>
        <display value="heart_rate"/>
      </coding>
    </code>
    <valueQuantity>
      <value value="60.0"/>
      <unit value="{beats}/min"/>
      <system value="http://unitsofmeasure.org" />
      <code value="{beats}/min"/>
    </valueQuantity>
    
    <effectiveDateTime value="2004-09-13"/>
    <status value="final"/>
    <reliability value="ok"/>
    <subject>
      <reference value="Patient/ID880378"/>
    </subject>
    <encounter>
      <reference value="Encounter/ID916"/>
    </encounter>
    
  </Observation>
  
  </resource>
  <request>
    <method value="PUT"/>
    <url value="Observation/ID916-heartrate"/>
  </request>
</entry>
<entry>
  <resource>
    
    
  <Observation>
  <id value="ID916-respiratoryrate"/>
    <text>
      <status value="generated"/>
      <div xmlns="http://www.w3.org/1999/xhtml">2004-09-13: respiratory_rate = 18.0 {breaths}/min</div>
    </text>
    <code>
      <coding>
        <system value="http://loinc.org"/>
        <code value="9279-1"/>
        <display value="respiratory_rate"/>
      </coding>
    </code>
    <valueQuantity>
      <value value="18.0"/>
      <unit value="{breaths}/min"/>
      <system value="http://unitsofmeasure.org" />
      <code value="{breaths}/min"/>
    </valueQuantity>
    
    <effectiveDateTime value="2004-09-13"/>
    <status value="final"/>
    <reliability value="ok"/>
    <subject>
      <reference value="Patient/ID880378"/>
    </subject>
    <encounter>
      <reference value="Encounter/ID916"/>
    </encounter>
    
  </Observation>
  
  </resource>
  <request>
    <method value="PUT"/>
    <url value="Observation/ID916-respiratoryrate"/>
  </request>
</entry>
<entry>
  <resource>
    
    
  <Observation>
  <id value="ID916-temperature"/>
    <text>
      <status value="generated"/>
      <div xmlns="http://www.w3.org/1999/xhtml">2004-09-13: temperature = 37.44444 Cel</div>
    </text>
    <code>
      <coding>
        <system value="http://loinc.org"/>
        <code value="8310-5"/>
        <display value="temperature"/>
      </coding>
    </code>
    <valueQuantity>
      <value value="37.44444"/>
      <unit value="Cel"/>
      <system value="http://unitsofmeasure.org" />
      <code value="Cel"/>
    </valueQuantity>
    
    <effectiveDateTime value="2004-09-13"/>
    <status value="final"/>
    <reliability value="ok"/>
    <subject>
      <reference value="Patient/ID880378"/>
    </subject>
    <encounter>
      <reference value="Encounter/ID916"/>
    </encounter>
    
  </Observation>
  
  </resource>
  <request>
    <method value="PUT"/>
    <url value="Observation/ID916-temperature"/>
  </request>
</entry>
<entry>
  <resource>
    
    
  <Observation>
  <id value="ID916-weight"/>
    <text>
      <status value="generated"/>
      <div xmlns="http://www.w3.org/1999/xhtml">2004-09-13: weight = 17.96226 kg</div>
    </text>
    <code>
      <coding>
        <system value="http://loinc.org"/>
        <code value="3141-9"/>
        <display value="weight"/>
      </coding>
    </code>
    <valueQuantity>
      <value value="17.96226"/>
      <unit value="kg"/>
      <system value="http://unitsofmeasure.org" />
      <code value="kg"/>
    </valueQuantity>
    
    <effectiveDateTime value="2004-09-13"/>
    <status value="final"/>
    <reliability value="ok"/>
    <subject>
      <reference value="Patient/ID880378"/>
    </subject>
    <encounter>
      <reference value="Encounter/ID916"/>
    </encounter>
    
  </Observation>
  
  </resource>
  <request>
    <method value="PUT"/>
    <url value="Observation/ID916-weight"/>
  </request>
</entry>
<entry>
  <resource>
    
    
  <Observation>
  <id value="ID916-bmi"/>
    <text>
      <status value="generated"/>
      <div xmlns="http://www.w3.org/1999/xhtml">2004-09-13: bmi = 15.4 kg/m2</div>
    </text>
    <code>
      <coding>
        <system value="http://loinc.org"/>
        <code value="39156-5"/>
        <display value="bmi"/>
      </coding>
    </code>
    <valueQuantity>
      <value value="15.4"/>
      <unit value="kg/m2"/>
      <system value="http://unitsofmeasure.org" />
      <code value="kg/m2"/>
    </valueQuantity>
    
    <effectiveDateTime value="2004-09-13"/>
    <status value="final"/>
    <reliability value="ok"/>
    <subject>
      <reference value="Patient/ID880378"/>
    </subject>
    <encounter>
      <reference value="Encounter/ID916"/>
    </encounter>
    
  </Observation>
  
  </resource>
  <request>
    <method value="PUT"/>
    <url value="Observation/ID916-bmi"/>
  </request>
</entry>
<entry>
  <resource>
    
    
  <Observation>
  <id value="ID916-oxygensaturation"/>
    <text>
      <status value="generated"/>
      <div xmlns="http://www.w3.org/1999/xhtml">2004-09-13: oxygen_saturation = 100.0 %{HemoglobinSaturation}</div>
    </text>
    <code>
      <coding>
        <system value="http://loinc.org"/>
        <code value="2710-2"/>
        <display value="oxygen_saturation"/>
      </coding>
    </code>
    <valueQuantity>
      <value value="100.0"/>
      <unit value="%{HemoglobinSaturation}"/>
      <system value="http://unitsofmeasure.org" />
      <code value="%{HemoglobinSaturation}"/>
    </valueQuantity>
    
    <effectiveDateTime value="2004-09-13"/>
    <status value="final"/>
    <reliability value="ok"/>
    <subject>
      <reference value="Patient/ID880378"/>
    </subject>
    <encounter>
      <reference value="Encounter/ID916"/>
    </encounter>
    
  </Observation>
  
  </resource>
  <request>
    <method value="PUT"/>
    <url value="Observation/ID916-oxygensaturation"/>
  </request>
</entry>
<entry>
  <resource>
    
    
  <Observation>
  <id value="ID917-height"/>
    <text>
      <status value="generated"/>
      <div xmlns="http://www.w3.org/1999/xhtml">2005-04-28: height = 113.792 cm</div>
    </text>
    <code>
      <coding>
        <system value="http://loinc.org"/>
        <code value="8302-2"/>
        <display value="height"/>
      </coding>
    </code>
    <valueQuantity>
      <value value="113.792"/>
      <unit value="cm"/>
      <system value="http://unitsofmeasure.org" />
      <code value="cm"/>
    </valueQuantity>
    
    <effectiveDateTime value="2005-04-28"/>
    <status value="final"/>
    <reliability value="ok"/>
    <subject>
      <reference value="Patient/ID880378"/>
    </subject>
    <encounter>
      <reference value="Encounter/ID917"/>
    </encounter>
    
  </Observation>
  
  </resource>
  <request>
    <method value="PUT"/>
    <url value="Observation/ID917-height"/>
  </request>
</entry>
<entry>
  <resource>
    
    
  <Observation>
  <id value="ID917-heartrate"/>
    <text>
      <status value="generated"/>
      <div xmlns="http://www.w3.org/1999/xhtml">2005-04-28: heart_rate = 42.0 {beats}/min</div>
    </text>
    <code>
      <coding>
        <system value="http://loinc.org"/>
        <code value="8867-4"/>
        <display value="heart_rate"/>
      </coding>
    </code>
    <valueQuantity>
      <value value="42.0"/>
      <unit value="{beats}/min"/>
      <system value="http://unitsofmeasure.org" />
      <code value="{beats}/min"/>
    </valueQuantity>
    
    <effectiveDateTime value="2005-04-28"/>
    <status value="final"/>
    <reliability value="ok"/>
    <subject>
      <reference value="Patient/ID880378"/>
    </subject>
    <encounter>
      <reference value="Encounter/ID917"/>
    </encounter>
    
  </Observation>
  
  </resource>
  <request>
    <method value="PUT"/>
    <url value="Observation/ID917-heartrate"/>
  </request>
</entry>
<entry>
  <resource>
    
    
  <Observation>
  <id value="ID917-respiratoryrate"/>
    <text>
      <status value="generated"/>
      <div xmlns="http://www.w3.org/1999/xhtml">2005-04-28: respiratory_rate = 18.0 {breaths}/min</div>
    </text>
    <code>
      <coding>
        <system value="http://loinc.org"/>
        <code value="9279-1"/>
        <display value="respiratory_rate"/>
      </coding>
    </code>
    <valueQuantity>
      <value value="18.0"/>
      <unit value="{breaths}/min"/>
      <system value="http://unitsofmeasure.org" />
      <code value="{breaths}/min"/>
    </valueQuantity>
    
    <effectiveDateTime value="2005-04-28"/>
    <status value="final"/>
    <reliability value="ok"/>
    <subject>
      <reference value="Patient/ID880378"/>
    </subject>
    <encounter>
      <reference value="Encounter/ID917"/>
    </encounter>
    
  </Observation>
  
  </resource>
  <request>
    <method value="PUT"/>
    <url value="Observation/ID917-respiratoryrate"/>
  </request>
</entry>
<entry>
  <resource>
    
    
  <Observation>
  <id value="ID917-temperature"/>
    <text>
      <status value="generated"/>
      <div xmlns="http://www.w3.org/1999/xhtml">2005-04-28: temperature = 37.38889 Cel</div>
    </text>
    <code>
      <coding>
        <system value="http://loinc.org"/>
        <code value="8310-5"/>
        <display value="temperature"/>
      </coding>
    </code>
    <valueQuantity>
      <value value="37.38889"/>
      <unit value="Cel"/>
      <system value="http://unitsofmeasure.org" />
      <code value="Cel"/>
    </valueQuantity>
    
    <effectiveDateTime value="2005-04-28"/>
    <status value="final"/>
    <reliability value="ok"/>
    <subject>
      <reference value="Patient/ID880378"/>
    </subject>
    <encounter>
      <reference value="Encounter/ID917"/>
    </encounter>
    
  </Observation>
  
  </resource>
  <request>
    <method value="PUT"/>
    <url value="Observation/ID917-temperature"/>
  </request>
</entry>
<entry>
  <resource>
    
    
  <Observation>
  <id value="ID917-weight"/>
    <text>
      <status value="generated"/>
      <div xmlns="http://www.w3.org/1999/xhtml">2005-04-28: weight = 20.32094 kg</div>
    </text>
    <code>
      <coding>
        <system value="http://loinc.org"/>
        <code value="3141-9"/>
        <display value="weight"/>
      </coding>
    </code>
    <valueQuantity>
      <value value="20.32094"/>
      <unit value="kg"/>
      <system value="http://unitsofmeasure.org" />
      <code value="kg"/>
    </valueQuantity>
    
    <effectiveDateTime value="2005-04-28"/>
    <status value="final"/>
    <reliability value="ok"/>
    <subject>
      <reference value="Patient/ID880378"/>
    </subject>
    <encounter>
      <reference value="Encounter/ID917"/>
    </encounter>
    
  </Observation>
  
  </resource>
  <request>
    <method value="PUT"/>
    <url value="Observation/ID917-weight"/>
  </request>
</entry>
<entry>
  <resource>
    
    
  <Observation>
  <id value="ID917-bmi"/>
    <text>
      <status value="generated"/>
      <div xmlns="http://www.w3.org/1999/xhtml">2005-04-28: bmi = 15.7 kg/m2</div>
    </text>
    <code>
      <coding>
        <system value="http://loinc.org"/>
        <code value="39156-5"/>
        <display value="bmi"/>
      </coding>
    </code>
    <valueQuantity>
      <value value="15.7"/>
      <unit value="kg/m2"/>
      <system value="http://unitsofmeasure.org" />
      <code value="kg/m2"/>
    </valueQuantity>
    
    <effectiveDateTime value="2005-04-28"/>
    <status value="final"/>
    <reliability value="ok"/>
    <subject>
      <reference value="Patient/ID880378"/>
    </subject>
    <encounter>
      <reference value="Encounter/ID917"/>
    </encounter>
    
  </Observation>
  
  </resource>
  <request>
    <method value="PUT"/>
    <url value="Observation/ID917-bmi"/>
  </request>
</entry>
<entry>
  <resource>
    
    
  <Observation>
  <id value="ID917-oxygensaturation"/>
    <text>
      <status value="generated"/>
      <div xmlns="http://www.w3.org/1999/xhtml">2005-04-28: oxygen_saturation = 100.0 %{HemoglobinSaturation}</div>
    </text>
    <code>
      <coding>
        <system value="http://loinc.org"/>
        <code value="2710-2"/>
        <display value="oxygen_saturation"/>
      </coding>
    </code>
    <valueQuantity>
      <value value="100.0"/>
      <unit value="%{HemoglobinSaturation}"/>
      <system value="http://unitsofmeasure.org" />
      <code value="%{HemoglobinSaturation}"/>
    </valueQuantity>
    
    <effectiveDateTime value="2005-04-28"/>
    <status value="final"/>
    <reliability value="ok"/>
    <subject>
      <reference value="Patient/ID880378"/>
    </subject>
    <encounter>
      <reference value="Encounter/ID917"/>
    </encounter>
    
  </Observation>
  
  </resource>
  <request>
    <method value="PUT"/>
    <url value="Observation/ID917-oxygensaturation"/>
  </request>
</entry>
<entry>
  <resource>
    
    
  <Observation>
  <id value="ID918-height"/>
    <text>
      <status value="generated"/>
      <div xmlns="http://www.w3.org/1999/xhtml">2005-04-29: height = 113.792 cm</div>
    </text>
    <code>
      <coding>
        <system value="http://loinc.org"/>
        <code value="8302-2"/>
        <display value="height"/>
      </coding>
    </code>
    <valueQuantity>
      <value value="113.792"/>
      <unit value="cm"/>
      <system value="http://unitsofmeasure.org" />
      <code value="cm"/>
    </valueQuantity>
    
    <effectiveDateTime value="2005-04-29"/>
    <status value="final"/>
    <reliability value="ok"/>
    <subject>
      <reference value="Patient/ID880378"/>
    </subject>
    <encounter>
      <reference value="Encounter/ID918"/>
    </encounter>
    
  </Observation>
  
  </resource>
  <request>
    <method value="PUT"/>
    <url value="Observation/ID918-height"/>
  </request>
</entry>
<entry>
  <resource>
    
    
  <Observation>
  <id value="ID918-heartrate"/>
    <text>
      <status value="generated"/>
      <div xmlns="http://www.w3.org/1999/xhtml">2005-04-29: heart_rate = 64.0 {beats}/min</div>
    </text>
    <code>
      <coding>
        <system value="http://loinc.org"/>
        <code value="8867-4"/>
        <display value="heart_rate"/>
      </coding>
    </code>
    <valueQuantity>
      <value value="64.0"/>
      <unit value="{beats}/min"/>
      <system value="http://unitsofmeasure.org" />
      <code value="{beats}/min"/>
    </valueQuantity>
    
    <effectiveDateTime value="2005-04-29"/>
    <status value="final"/>
    <reliability value="ok"/>
    <subject>
      <reference value="Patient/ID880378"/>
    </subject>
    <encounter>
      <reference value="Encounter/ID918"/>
    </encounter>
    
  </Observation>
  
  </resource>
  <request>
    <method value="PUT"/>
    <url value="Observation/ID918-heartrate"/>
  </request>
</entry>
<entry>
  <resource>
    
    
  <Observation>
  <id value="ID918-respiratoryrate"/>
    <text>
      <status value="generated"/>
      <div xmlns="http://www.w3.org/1999/xhtml">2005-04-29: respiratory_rate = 18.0 {breaths}/min</div>
    </text>
    <code>
      <coding>
        <system value="http://loinc.org"/>
        <code value="9279-1"/>
        <display value="respiratory_rate"/>
      </coding>
    </code>
    <valueQuantity>
      <value value="18.0"/>
      <unit value="{breaths}/min"/>
      <system value="http://unitsofmeasure.org" />
      <code value="{breaths}/min"/>
    </valueQuantity>
    
    <effectiveDateTime value="2005-04-29"/>
    <status value="final"/>
    <reliability value="ok"/>
    <subject>
      <reference value="Patient/ID880378"/>
    </subject>
    <encounter>
      <reference value="Encounter/ID918"/>
    </encounter>
    
  </Observation>
  
  </resource>
  <request>
    <method value="PUT"/>
    <url value="Observation/ID918-respiratoryrate"/>
  </request>
</entry>
<entry>
  <resource>
    
    
  <Observation>
  <id value="ID918-temperature"/>
    <text>
      <status value="generated"/>
      <div xmlns="http://www.w3.org/1999/xhtml">2005-04-29: temperature = 37.38889 Cel</div>
    </text>
    <code>
      <coding>
        <system value="http://loinc.org"/>
        <code value="8310-5"/>
        <display value="temperature"/>
      </coding>
    </code>
    <valueQuantity>
      <value value="37.38889"/>
      <unit value="Cel"/>
      <system value="http://unitsofmeasure.org" />
      <code value="Cel"/>
    </valueQuantity>
    
    <effectiveDateTime value="2005-04-29"/>
    <status value="final"/>
    <reliability value="ok"/>
    <subject>
      <reference value="Patient/ID880378"/>
    </subject>
    <encounter>
      <reference value="Encounter/ID918"/>
    </encounter>
    
  </Observation>
  
  </resource>
  <request>
    <method value="PUT"/>
    <url value="Observation/ID918-temperature"/>
  </request>
</entry>
<entry>
  <resource>
    
    
  <Observation>
  <id value="ID918-weight"/>
    <text>
      <status value="generated"/>
      <div xmlns="http://www.w3.org/1999/xhtml">2005-04-29: weight = 20.18486 kg</div>
    </text>
    <code>
      <coding>
        <system value="http://loinc.org"/>
        <code value="3141-9"/>
        <display value="weight"/>
      </coding>
    </code>
    <valueQuantity>
      <value value="20.18486"/>
      <unit value="kg"/>
      <system value="http://unitsofmeasure.org" />
      <code value="kg"/>
    </valueQuantity>
    
    <effectiveDateTime value="2005-04-29"/>
    <status value="final"/>
    <reliability value="ok"/>
    <subject>
      <reference value="Patient/ID880378"/>
    </subject>
    <encounter>
      <reference value="Encounter/ID918"/>
    </encounter>
    
  </Observation>
  
  </resource>
  <request>
    <method value="PUT"/>
    <url value="Observation/ID918-weight"/>
  </request>
</entry>
<entry>
  <resource>
    
    
  <Observation>
  <id value="ID918-bmi"/>
    <text>
      <status value="generated"/>
      <div xmlns="http://www.w3.org/1999/xhtml">2005-04-29: bmi = 15.6 kg/m2</div>
    </text>
    <code>
      <coding>
        <system value="http://loinc.org"/>
        <code value="39156-5"/>
        <display value="bmi"/>
      </coding>
    </code>
    <valueQuantity>
      <value value="15.6"/>
      <unit value="kg/m2"/>
      <system value="http://unitsofmeasure.org" />
      <code value="kg/m2"/>
    </valueQuantity>
    
    <effectiveDateTime value="2005-04-29"/>
    <status value="final"/>
    <reliability value="ok"/>
    <subject>
      <reference value="Patient/ID880378"/>
    </subject>
    <encounter>
      <reference value="Encounter/ID918"/>
    </encounter>
    
  </Observation>
  
  </resource>
  <request>
    <method value="PUT"/>
    <url value="Observation/ID918-bmi"/>
  </request>
</entry>
<entry>
  <resource>
    
    
  <Observation>
  <id value="ID918-oxygensaturation"/>
    <text>
      <status value="generated"/>
      <div xmlns="http://www.w3.org/1999/xhtml">2005-04-29: oxygen_saturation = 100.0 %{HemoglobinSaturation}</div>
    </text>
    <code>
      <coding>
        <system value="http://loinc.org"/>
        <code value="2710-2"/>
        <display value="oxygen_saturation"/>
      </coding>
    </code>
    <valueQuantity>
      <value value="100.0"/>
      <unit value="%{HemoglobinSaturation}"/>
      <system value="http://unitsofmeasure.org" />
      <code value="%{HemoglobinSaturation}"/>
    </valueQuantity>
    
    <effectiveDateTime value="2005-04-29"/>
    <status value="final"/>
    <reliability value="ok"/>
    <subject>
      <reference value="Patient/ID880378"/>
    </subject>
    <encounter>
      <reference value="Encounter/ID918"/>
    </encounter>
    
  </Observation>
  
  </resource>
  <request>
    <method value="PUT"/>
    <url value="Observation/ID918-oxygensaturation"/>
  </request>
</entry>
<entry>
  <resource>
    
    
  <Observation>
  <id value="ID919-height"/>
    <text>
      <status value="generated"/>
      <div xmlns="http://www.w3.org/1999/xhtml">2005-06-27: height = 113.792 cm</div>
    </text>
    <code>
      <coding>
        <system value="http://loinc.org"/>
        <code value="8302-2"/>
        <display value="height"/>
      </coding>
    </code>
    <valueQuantity>
      <value value="113.792"/>
      <unit value="cm"/>
      <system value="http://unitsofmeasure.org" />
      <code value="cm"/>
    </valueQuantity>
    
    <effectiveDateTime value="2005-06-27"/>
    <status value="final"/>
    <reliability value="ok"/>
    <subject>
      <reference value="Patient/ID880378"/>
    </subject>
    <encounter>
      <reference value="Encounter/ID919"/>
    </encounter>
    
  </Observation>
  
  </resource>
  <request>
    <method value="PUT"/>
    <url value="Observation/ID919-height"/>
  </request>
</entry>
<entry>
  <resource>
    
    
  <Observation>
  <id value="ID919-heartrate"/>
    <text>
      <status value="generated"/>
      <div xmlns="http://www.w3.org/1999/xhtml">2005-06-27: heart_rate = 25.0 {beats}/min</div>
    </text>
    <code>
      <coding>
        <system value="http://loinc.org"/>
        <code value="8867-4"/>
        <display value="heart_rate"/>
      </coding>
    </code>
    <valueQuantity>
      <value value="25.0"/>
      <unit value="{beats}/min"/>
      <system value="http://unitsofmeasure.org" />
      <code value="{beats}/min"/>
    </valueQuantity>
    
    <effectiveDateTime value="2005-06-27"/>
    <status value="final"/>
    <reliability value="ok"/>
    <subject>
      <reference value="Patient/ID880378"/>
    </subject>
    <encounter>
      <reference value="Encounter/ID919"/>
    </encounter>
    
  </Observation>
  
  </resource>
  <request>
    <method value="PUT"/>
    <url value="Observation/ID919-heartrate"/>
  </request>
</entry>
<entry>
  <resource>
    
    
  <Observation>
  <id value="ID919-respiratoryrate"/>
    <text>
      <status value="generated"/>
      <div xmlns="http://www.w3.org/1999/xhtml">2005-06-27: respiratory_rate = 18.0 {breaths}/min</div>
    </text>
    <code>
      <coding>
        <system value="http://loinc.org"/>
        <code value="9279-1"/>
        <display value="respiratory_rate"/>
      </coding>
    </code>
    <valueQuantity>
      <value value="18.0"/>
      <unit value="{breaths}/min"/>
      <system value="http://unitsofmeasure.org" />
      <code value="{breaths}/min"/>
    </valueQuantity>
    
    <effectiveDateTime value="2005-06-27"/>
    <status value="final"/>
    <reliability value="ok"/>
    <subject>
      <reference value="Patient/ID880378"/>
    </subject>
    <encounter>
      <reference value="Encounter/ID919"/>
    </encounter>
    
  </Observation>
  
  </resource>
  <request>
    <method value="PUT"/>
    <url value="Observation/ID919-respiratoryrate"/>
  </request>
</entry>
<entry>
  <resource>
    
    
  <Observation>
  <id value="ID919-temperature"/>
    <text>
      <status value="generated"/>
      <div xmlns="http://www.w3.org/1999/xhtml">2005-06-27: temperature = 37.38889 Cel</div>
    </text>
    <code>
      <coding>
        <system value="http://loinc.org"/>
        <code value="8310-5"/>
        <display value="temperature"/>
      </coding>
    </code>
    <valueQuantity>
      <value value="37.38889"/>
      <unit value="Cel"/>
      <system value="http://unitsofmeasure.org" />
      <code value="Cel"/>
    </valueQuantity>
    
    <effectiveDateTime value="2005-06-27"/>
    <status value="final"/>
    <reliability value="ok"/>
    <subject>
      <reference value="Patient/ID880378"/>
    </subject>
    <encounter>
      <reference value="Encounter/ID919"/>
    </encounter>
    
  </Observation>
  
  </resource>
  <request>
    <method value="PUT"/>
    <url value="Observation/ID919-temperature"/>
  </request>
</entry>
<entry>
  <resource>
    
    
  <Observation>
  <id value="ID919-weight"/>
    <text>
      <status value="generated"/>
      <div xmlns="http://www.w3.org/1999/xhtml">2005-06-27: weight = 20.23022 kg</div>
    </text>
    <code>
      <coding>
        <system value="http://loinc.org"/>
        <code value="3141-9"/>
        <display value="weight"/>
      </coding>
    </code>
    <valueQuantity>
      <value value="20.23022"/>
      <unit value="kg"/>
      <system value="http://unitsofmeasure.org" />
      <code value="kg"/>
    </valueQuantity>
    
    <effectiveDateTime value="2005-06-27"/>
    <status value="final"/>
    <reliability value="ok"/>
    <subject>
      <reference value="Patient/ID880378"/>
    </subject>
    <encounter>
      <reference value="Encounter/ID919"/>
    </encounter>
    
  </Observation>
  
  </resource>
  <request>
    <method value="PUT"/>
    <url value="Observation/ID919-weight"/>
  </request>
</entry>
<entry>
  <resource>
    
    
  <Observation>
  <id value="ID919-bmi"/>
    <text>
      <status value="generated"/>
      <div xmlns="http://www.w3.org/1999/xhtml">2005-06-27: bmi = 15.6 kg/m2</div>
    </text>
    <code>
      <coding>
        <system value="http://loinc.org"/>
        <code value="39156-5"/>
        <display value="bmi"/>
      </coding>
    </code>
    <valueQuantity>
      <value value="15.6"/>
      <unit value="kg/m2"/>
      <system value="http://unitsofmeasure.org" />
      <code value="kg/m2"/>
    </valueQuantity>
    
    <effectiveDateTime value="2005-06-27"/>
    <status value="final"/>
    <reliability value="ok"/>
    <subject>
      <reference value="Patient/ID880378"/>
    </subject>
    <encounter>
      <reference value="Encounter/ID919"/>
    </encounter>
    
  </Observation>
  
  </resource>
  <request>
    <method value="PUT"/>
    <url value="Observation/ID919-bmi"/>
  </request>
</entry>
<entry>
  <resource>
    
    
  <Observation>
  <id value="ID919-oxygensaturation"/>
    <text>
      <status value="generated"/>
      <div xmlns="http://www.w3.org/1999/xhtml">2005-06-27: oxygen_saturation = 100.0 %{HemoglobinSaturation}</div>
    </text>
    <code>
      <coding>
        <system value="http://loinc.org"/>
        <code value="2710-2"/>
        <display value="oxygen_saturation"/>
      </coding>
    </code>
    <valueQuantity>
      <value value="100.0"/>
      <unit value="%{HemoglobinSaturation}"/>
      <system value="http://unitsofmeasure.org" />
      <code value="%{HemoglobinSaturation}"/>
    </valueQuantity>
    
    <effectiveDateTime value="2005-06-27"/>
    <status value="final"/>
    <reliability value="ok"/>
    <subject>
      <reference value="Patient/ID880378"/>
    </subject>
    <encounter>
      <reference value="Encounter/ID919"/>
    </encounter>
    
  </Observation>
  
  </resource>
  <request>
    <method value="PUT"/>
    <url value="Observation/ID919-oxygensaturation"/>
  </request>
</entry>
<entry>
  <resource>
    
    
  <Observation>
  <id value="ID920-height"/>
    <text>
      <status value="generated"/>
      <div xmlns="http://www.w3.org/1999/xhtml">2006-03-07: height = 119.634 cm</div>
    </text>
    <code>
      <coding>
        <system value="http://loinc.org"/>
        <code value="8302-2"/>
        <display value="height"/>
      </coding>
    </code>
    <valueQuantity>
      <value value="119.634"/>
      <unit value="cm"/>
      <system value="http://unitsofmeasure.org" />
      <code value="cm"/>
    </valueQuantity>
    
    <effectiveDateTime value="2006-03-07"/>
    <status value="final"/>
    <reliability value="ok"/>
    <subject>
      <reference value="Patient/ID880378"/>
    </subject>
    <encounter>
      <reference value="Encounter/ID920"/>
    </encounter>
    
  </Observation>
  
  </resource>
  <request>
    <method value="PUT"/>
    <url value="Observation/ID920-height"/>
  </request>
</entry>
<entry>
  <resource>
    
    
  <Observation>
  <id value="ID920-heartrate"/>
    <text>
      <status value="generated"/>
      <div xmlns="http://www.w3.org/1999/xhtml">2006-03-07: heart_rate = 59.0 {beats}/min</div>
    </text>
    <code>
      <coding>
        <system value="http://loinc.org"/>
        <code value="8867-4"/>
        <display value="heart_rate"/>
      </coding>
    </code>
    <valueQuantity>
      <value value="59.0"/>
      <unit value="{beats}/min"/>
      <system value="http://unitsofmeasure.org" />
      <code value="{beats}/min"/>
    </valueQuantity>
    
    <effectiveDateTime value="2006-03-07"/>
    <status value="final"/>
    <reliability value="ok"/>
    <subject>
      <reference value="Patient/ID880378"/>
    </subject>
    <encounter>
      <reference value="Encounter/ID920"/>
    </encounter>
    
  </Observation>
  
  </resource>
  <request>
    <method value="PUT"/>
    <url value="Observation/ID920-heartrate"/>
  </request>
</entry>
<entry>
  <resource>
    
    
  <Observation>
  <id value="ID920-respiratoryrate"/>
    <text>
      <status value="generated"/>
      <div xmlns="http://www.w3.org/1999/xhtml">2006-03-07: respiratory_rate = 13.0 {breaths}/min</div>
    </text>
    <code>
      <coding>
        <system value="http://loinc.org"/>
        <code value="9279-1"/>
        <display value="respiratory_rate"/>
      </coding>
    </code>
    <valueQuantity>
      <value value="13.0"/>
      <unit value="{breaths}/min"/>
      <system value="http://unitsofmeasure.org" />
      <code value="{breaths}/min"/>
    </valueQuantity>
    
    <effectiveDateTime value="2006-03-07"/>
    <status value="final"/>
    <reliability value="ok"/>
    <subject>
      <reference value="Patient/ID880378"/>
    </subject>
    <encounter>
      <reference value="Encounter/ID920"/>
    </encounter>
    
  </Observation>
  
  </resource>
  <request>
    <method value="PUT"/>
    <url value="Observation/ID920-respiratoryrate"/>
  </request>
</entry>
<entry>
  <resource>
    
    
  <Observation>
  <id value="ID920-temperature"/>
    <text>
      <status value="generated"/>
      <div xmlns="http://www.w3.org/1999/xhtml">2006-03-07: temperature = 37.44444 Cel</div>
    </text>
    <code>
      <coding>
        <system value="http://loinc.org"/>
        <code value="8310-5"/>
        <display value="temperature"/>
      </coding>
    </code>
    <valueQuantity>
      <value value="37.44444"/>
      <unit value="Cel"/>
      <system value="http://unitsofmeasure.org" />
      <code value="Cel"/>
    </valueQuantity>
    
    <effectiveDateTime value="2006-03-07"/>
    <status value="final"/>
    <reliability value="ok"/>
    <subject>
      <reference value="Patient/ID880378"/>
    </subject>
    <encounter>
      <reference value="Encounter/ID920"/>
    </encounter>
    
  </Observation>
  
  </resource>
  <request>
    <method value="PUT"/>
    <url value="Observation/ID920-temperature"/>
  </request>
</entry>
<entry>
  <resource>
    
    
  <Observation>
  <id value="ID920-weight"/>
    <text>
      <status value="generated"/>
      <div xmlns="http://www.w3.org/1999/xhtml">2006-03-07: weight = 22.67962 kg</div>
    </text>
    <code>
      <coding>
        <system value="http://loinc.org"/>
        <code value="3141-9"/>
        <display value="weight"/>
      </coding>
    </code>
    <valueQuantity>
      <value value="22.67962"/>
      <unit value="kg"/>
      <system value="http://unitsofmeasure.org" />
      <code value="kg"/>
    </valueQuantity>
    
    <effectiveDateTime value="2006-03-07"/>
    <status value="final"/>
    <reliability value="ok"/>
    <subject>
      <reference value="Patient/ID880378"/>
    </subject>
    <encounter>
      <reference value="Encounter/ID920"/>
    </encounter>
    
  </Observation>
  
  </resource>
  <request>
    <method value="PUT"/>
    <url value="Observation/ID920-weight"/>
  </request>
</entry>
<entry>
  <resource>
    
    
  <Observation>
  <id value="ID920-bmi"/>
    <text>
      <status value="generated"/>
      <div xmlns="http://www.w3.org/1999/xhtml">2006-03-07: bmi = 15.8 kg/m2</div>
    </text>
    <code>
      <coding>
        <system value="http://loinc.org"/>
        <code value="39156-5"/>
        <display value="bmi"/>
      </coding>
    </code>
    <valueQuantity>
      <value value="15.8"/>
      <unit value="kg/m2"/>
      <system value="http://unitsofmeasure.org" />
      <code value="kg/m2"/>
    </valueQuantity>
    
    <effectiveDateTime value="2006-03-07"/>
    <status value="final"/>
    <reliability value="ok"/>
    <subject>
      <reference value="Patient/ID880378"/>
    </subject>
    <encounter>
      <reference value="Encounter/ID920"/>
    </encounter>
    
  </Observation>
  
  </resource>
  <request>
    <method value="PUT"/>
    <url value="Observation/ID920-bmi"/>
  </request>
</entry>
<entry>
  <resource>
    
    
  <Observation>
  <id value="ID920-oxygensaturation"/>
    <text>
      <status value="generated"/>
      <div xmlns="http://www.w3.org/1999/xhtml">2006-03-07: oxygen_saturation = 100.0 %{HemoglobinSaturation}</div>
    </text>
    <code>
      <coding>
        <system value="http://loinc.org"/>
        <code value="2710-2"/>
        <display value="oxygen_saturation"/>
      </coding>
    </code>
    <valueQuantity>
      <value value="100.0"/>
      <unit value="%{HemoglobinSaturation}"/>
      <system value="http://unitsofmeasure.org" />
      <code value="%{HemoglobinSaturation}"/>
    </valueQuantity>
    
    <effectiveDateTime value="2006-03-07"/>
    <status value="final"/>
    <reliability value="ok"/>
    <subject>
      <reference value="Patient/ID880378"/>
    </subject>
    <encounter>
      <reference value="Encounter/ID920"/>
    </encounter>
    
  </Observation>
  
  </resource>
  <request>
    <method value="PUT"/>
    <url value="Observation/ID920-oxygensaturation"/>
  </request>
</entry>
<entry>
  <resource>
    
    
  <Observation>
  <id value="ID921-height"/>
    <text>
      <status value="generated"/>
      <div xmlns="http://www.w3.org/1999/xhtml">2006-03-08: height = 119.634 cm</div>
    </text>
    <code>
      <coding>
        <system value="http://loinc.org"/>
        <code value="8302-2"/>
        <display value="height"/>
      </coding>
    </code>
    <valueQuantity>
      <value value="119.634"/>
      <unit value="cm"/>
      <system value="http://unitsofmeasure.org" />
      <code value="cm"/>
    </valueQuantity>
    
    <effectiveDateTime value="2006-03-08"/>
    <status value="final"/>
    <reliability value="ok"/>
    <subject>
      <reference value="Patient/ID880378"/>
    </subject>
    <encounter>
      <reference value="Encounter/ID921"/>
    </encounter>
    
  </Observation>
  
  </resource>
  <request>
    <method value="PUT"/>
    <url value="Observation/ID921-height"/>
  </request>
</entry>
<entry>
  <resource>
    
    
  <Observation>
  <id value="ID921-heartrate"/>
    <text>
      <status value="generated"/>
      <div xmlns="http://www.w3.org/1999/xhtml">2006-03-08: heart_rate = 54.0 {beats}/min</div>
    </text>
    <code>
      <coding>
        <system value="http://loinc.org"/>
        <code value="8867-4"/>
        <display value="heart_rate"/>
      </coding>
    </code>
    <valueQuantity>
      <value value="54.0"/>
      <unit value="{beats}/min"/>
      <system value="http://unitsofmeasure.org" />
      <code value="{beats}/min"/>
    </valueQuantity>
    
    <effectiveDateTime value="2006-03-08"/>
    <status value="final"/>
    <reliability value="ok"/>
    <subject>
      <reference value="Patient/ID880378"/>
    </subject>
    <encounter>
      <reference value="Encounter/ID921"/>
    </encounter>
    
  </Observation>
  
  </resource>
  <request>
    <method value="PUT"/>
    <url value="Observation/ID921-heartrate"/>
  </request>
</entry>
<entry>
  <resource>
    
    
  <Observation>
  <id value="ID921-respiratoryrate"/>
    <text>
      <status value="generated"/>
      <div xmlns="http://www.w3.org/1999/xhtml">2006-03-08: respiratory_rate = 13.0 {breaths}/min</div>
    </text>
    <code>
      <coding>
        <system value="http://loinc.org"/>
        <code value="9279-1"/>
        <display value="respiratory_rate"/>
      </coding>
    </code>
    <valueQuantity>
      <value value="13.0"/>
      <unit value="{breaths}/min"/>
      <system value="http://unitsofmeasure.org" />
      <code value="{breaths}/min"/>
    </valueQuantity>
    
    <effectiveDateTime value="2006-03-08"/>
    <status value="final"/>
    <reliability value="ok"/>
    <subject>
      <reference value="Patient/ID880378"/>
    </subject>
    <encounter>
      <reference value="Encounter/ID921"/>
    </encounter>
    
  </Observation>
  
  </resource>
  <request>
    <method value="PUT"/>
    <url value="Observation/ID921-respiratoryrate"/>
  </request>
</entry>
<entry>
  <resource>
    
    
  <Observation>
  <id value="ID921-temperature"/>
    <text>
      <status value="generated"/>
      <div xmlns="http://www.w3.org/1999/xhtml">2006-03-08: temperature = 37.44444 Cel</div>
    </text>
    <code>
      <coding>
        <system value="http://loinc.org"/>
        <code value="8310-5"/>
        <display value="temperature"/>
      </coding>
    </code>
    <valueQuantity>
      <value value="37.44444"/>
      <unit value="Cel"/>
      <system value="http://unitsofmeasure.org" />
      <code value="Cel"/>
    </valueQuantity>
    
    <effectiveDateTime value="2006-03-08"/>
    <status value="final"/>
    <reliability value="ok"/>
    <subject>
      <reference value="Patient/ID880378"/>
    </subject>
    <encounter>
      <reference value="Encounter/ID921"/>
    </encounter>
    
  </Observation>
  
  </resource>
  <request>
    <method value="PUT"/>
    <url value="Observation/ID921-temperature"/>
  </request>
</entry>
<entry>
  <resource>
    
    
  <Observation>
  <id value="ID921-weight"/>
    <text>
      <status value="generated"/>
      <div xmlns="http://www.w3.org/1999/xhtml">2006-03-08: weight = 22.63426 kg</div>
    </text>
    <code>
      <coding>
        <system value="http://loinc.org"/>
        <code value="3141-9"/>
        <display value="weight"/>
      </coding>
    </code>
    <valueQuantity>
      <value value="22.63426"/>
      <unit value="kg"/>
      <system value="http://unitsofmeasure.org" />
      <code value="kg"/>
    </valueQuantity>
    
    <effectiveDateTime value="2006-03-08"/>
    <status value="final"/>
    <reliability value="ok"/>
    <subject>
      <reference value="Patient/ID880378"/>
    </subject>
    <encounter>
      <reference value="Encounter/ID921"/>
    </encounter>
    
  </Observation>
  
  </resource>
  <request>
    <method value="PUT"/>
    <url value="Observation/ID921-weight"/>
  </request>
</entry>
<entry>
  <resource>
    
    
  <Observation>
  <id value="ID921-bmi"/>
    <text>
      <status value="generated"/>
      <div xmlns="http://www.w3.org/1999/xhtml">2006-03-08: bmi = 15.8 kg/m2</div>
    </text>
    <code>
      <coding>
        <system value="http://loinc.org"/>
        <code value="39156-5"/>
        <display value="bmi"/>
      </coding>
    </code>
    <valueQuantity>
      <value value="15.8"/>
      <unit value="kg/m2"/>
      <system value="http://unitsofmeasure.org" />
      <code value="kg/m2"/>
    </valueQuantity>
    
    <effectiveDateTime value="2006-03-08"/>
    <status value="final"/>
    <reliability value="ok"/>
    <subject>
      <reference value="Patient/ID880378"/>
    </subject>
    <encounter>
      <reference value="Encounter/ID921"/>
    </encounter>
    
  </Observation>
  
  </resource>
  <request>
    <method value="PUT"/>
    <url value="Observation/ID921-bmi"/>
  </request>
</entry>
<entry>
  <resource>
    
    
  <Observation>
  <id value="ID921-oxygensaturation"/>
    <text>
      <status value="generated"/>
      <div xmlns="http://www.w3.org/1999/xhtml">2006-03-08: oxygen_saturation = 100.0 %{HemoglobinSaturation}</div>
    </text>
    <code>
      <coding>
        <system value="http://loinc.org"/>
        <code value="2710-2"/>
        <display value="oxygen_saturation"/>
      </coding>
    </code>
    <valueQuantity>
      <value value="100.0"/>
      <unit value="%{HemoglobinSaturation}"/>
      <system value="http://unitsofmeasure.org" />
      <code value="%{HemoglobinSaturation}"/>
    </valueQuantity>
    
    <effectiveDateTime value="2006-03-08"/>
    <status value="final"/>
    <reliability value="ok"/>
    <subject>
      <reference value="Patient/ID880378"/>
    </subject>
    <encounter>
      <reference value="Encounter/ID921"/>
    </encounter>
    
  </Observation>
  
  </resource>
  <request>
    <method value="PUT"/>
    <url value="Observation/ID921-oxygensaturation"/>
  </request>
</entry>
<entry>
  <resource>
    
    
  <Observation>
  <id value="ID922-height"/>
    <text>
      <status value="generated"/>
      <div xmlns="http://www.w3.org/1999/xhtml">2006-04-04: height = 119.634 cm</div>
    </text>
    <code>
      <coding>
        <system value="http://loinc.org"/>
        <code value="8302-2"/>
        <display value="height"/>
      </coding>
    </code>
    <valueQuantity>
      <value value="119.634"/>
      <unit value="cm"/>
      <system value="http://unitsofmeasure.org" />
      <code value="cm"/>
    </valueQuantity>
    
    <effectiveDateTime value="2006-04-04"/>
    <status value="final"/>
    <reliability value="ok"/>
    <subject>
      <reference value="Patient/ID880378"/>
    </subject>
    <encounter>
      <reference value="Encounter/ID922"/>
    </encounter>
    
  </Observation>
  
  </resource>
  <request>
    <method value="PUT"/>
    <url value="Observation/ID922-height"/>
  </request>
</entry>
<entry>
  <resource>
    
    
  <Observation>
  <id value="ID922-heartrate"/>
    <text>
      <status value="generated"/>
      <div xmlns="http://www.w3.org/1999/xhtml">2006-04-04: heart_rate = 39.0 {beats}/min</div>
    </text>
    <code>
      <coding>
        <system value="http://loinc.org"/>
        <code value="8867-4"/>
        <display value="heart_rate"/>
      </coding>
    </code>
    <valueQuantity>
      <value value="39.0"/>
      <unit value="{beats}/min"/>
      <system value="http://unitsofmeasure.org" />
      <code value="{beats}/min"/>
    </valueQuantity>
    
    <effectiveDateTime value="2006-04-04"/>
    <status value="final"/>
    <reliability value="ok"/>
    <subject>
      <reference value="Patient/ID880378"/>
    </subject>
    <encounter>
      <reference value="Encounter/ID922"/>
    </encounter>
    
  </Observation>
  
  </resource>
  <request>
    <method value="PUT"/>
    <url value="Observation/ID922-heartrate"/>
  </request>
</entry>
<entry>
  <resource>
    
    
  <Observation>
  <id value="ID922-respiratoryrate"/>
    <text>
      <status value="generated"/>
      <div xmlns="http://www.w3.org/1999/xhtml">2006-04-04: respiratory_rate = 13.0 {breaths}/min</div>
    </text>
    <code>
      <coding>
        <system value="http://loinc.org"/>
        <code value="9279-1"/>
        <display value="respiratory_rate"/>
      </coding>
    </code>
    <valueQuantity>
      <value value="13.0"/>
      <unit value="{breaths}/min"/>
      <system value="http://unitsofmeasure.org" />
      <code value="{breaths}/min"/>
    </valueQuantity>
    
    <effectiveDateTime value="2006-04-04"/>
    <status value="final"/>
    <reliability value="ok"/>
    <subject>
      <reference value="Patient/ID880378"/>
    </subject>
    <encounter>
      <reference value="Encounter/ID922"/>
    </encounter>
    
  </Observation>
  
  </resource>
  <request>
    <method value="PUT"/>
    <url value="Observation/ID922-respiratoryrate"/>
  </request>
</entry>
<entry>
  <resource>
    
    
  <Observation>
  <id value="ID922-temperature"/>
    <text>
      <status value="generated"/>
      <div xmlns="http://www.w3.org/1999/xhtml">2006-04-04: temperature = 37.44444 Cel</div>
    </text>
    <code>
      <coding>
        <system value="http://loinc.org"/>
        <code value="8310-5"/>
        <display value="temperature"/>
      </coding>
    </code>
    <valueQuantity>
      <value value="37.44444"/>
      <unit value="Cel"/>
      <system value="http://unitsofmeasure.org" />
      <code value="Cel"/>
    </valueQuantity>
    
    <effectiveDateTime value="2006-04-04"/>
    <status value="final"/>
    <reliability value="ok"/>
    <subject>
      <reference value="Patient/ID880378"/>
    </subject>
    <encounter>
      <reference value="Encounter/ID922"/>
    </encounter>
    
  </Observation>
  
  </resource>
  <request>
    <method value="PUT"/>
    <url value="Observation/ID922-temperature"/>
  </request>
</entry>
<entry>
  <resource>
    
    
  <Observation>
  <id value="ID922-weight"/>
    <text>
      <status value="generated"/>
      <div xmlns="http://www.w3.org/1999/xhtml">2006-04-04: weight = 22.49818 kg</div>
    </text>
    <code>
      <coding>
        <system value="http://loinc.org"/>
        <code value="3141-9"/>
        <display value="weight"/>
      </coding>
    </code>
    <valueQuantity>
      <value value="22.49818"/>
      <unit value="kg"/>
      <system value="http://unitsofmeasure.org" />
      <code value="kg"/>
    </valueQuantity>
    
    <effectiveDateTime value="2006-04-04"/>
    <status value="final"/>
    <reliability value="ok"/>
    <subject>
      <reference value="Patient/ID880378"/>
    </subject>
    <encounter>
      <reference value="Encounter/ID922"/>
    </encounter>
    
  </Observation>
  
  </resource>
  <request>
    <method value="PUT"/>
    <url value="Observation/ID922-weight"/>
  </request>
</entry>
<entry>
  <resource>
    
    
  <Observation>
  <id value="ID922-bmi"/>
    <text>
      <status value="generated"/>
      <div xmlns="http://www.w3.org/1999/xhtml">2006-04-04: bmi = 15.7 kg/m2</div>
    </text>
    <code>
      <coding>
        <system value="http://loinc.org"/>
        <code value="39156-5"/>
        <display value="bmi"/>
      </coding>
    </code>
    <valueQuantity>
      <value value="15.7"/>
      <unit value="kg/m2"/>
      <system value="http://unitsofmeasure.org" />
      <code value="kg/m2"/>
    </valueQuantity>
    
    <effectiveDateTime value="2006-04-04"/>
    <status value="final"/>
    <reliability value="ok"/>
    <subject>
      <reference value="Patient/ID880378"/>
    </subject>
    <encounter>
      <reference value="Encounter/ID922"/>
    </encounter>
    
  </Observation>
  
  </resource>
  <request>
    <method value="PUT"/>
    <url value="Observation/ID922-bmi"/>
  </request>
</entry>
<entry>
  <resource>
    
    
  <Observation>
  <id value="ID922-oxygensaturation"/>
    <text>
      <status value="generated"/>
      <div xmlns="http://www.w3.org/1999/xhtml">2006-04-04: oxygen_saturation = 100.0 %{HemoglobinSaturation}</div>
    </text>
    <code>
      <coding>
        <system value="http://loinc.org"/>
        <code value="2710-2"/>
        <display value="oxygen_saturation"/>
      </coding>
    </code>
    <valueQuantity>
      <value value="100.0"/>
      <unit value="%{HemoglobinSaturation}"/>
      <system value="http://unitsofmeasure.org" />
      <code value="%{HemoglobinSaturation}"/>
    </valueQuantity>
    
    <effectiveDateTime value="2006-04-04"/>
    <status value="final"/>
    <reliability value="ok"/>
    <subject>
      <reference value="Patient/ID880378"/>
    </subject>
    <encounter>
      <reference value="Encounter/ID922"/>
    </encounter>
    
  </Observation>
  
  </resource>
  <request>
    <method value="PUT"/>
    <url value="Observation/ID922-oxygensaturation"/>
  </request>
</entry>
<entry>
  <resource>
    
    
  <Observation>
  <id value="ID923-height"/>
    <text>
      <status value="generated"/>
      <div xmlns="http://www.w3.org/1999/xhtml">2006-04-05: height = 119.634 cm</div>
    </text>
    <code>
      <coding>
        <system value="http://loinc.org"/>
        <code value="8302-2"/>
        <display value="height"/>
      </coding>
    </code>
    <valueQuantity>
      <value value="119.634"/>
      <unit value="cm"/>
      <system value="http://unitsofmeasure.org" />
      <code value="cm"/>
    </valueQuantity>
    
    <effectiveDateTime value="2006-04-05"/>
    <status value="final"/>
    <reliability value="ok"/>
    <subject>
      <reference value="Patient/ID880378"/>
    </subject>
    <encounter>
      <reference value="Encounter/ID923"/>
    </encounter>
    
  </Observation>
  
  </resource>
  <request>
    <method value="PUT"/>
    <url value="Observation/ID923-height"/>
  </request>
</entry>
<entry>
  <resource>
    
    
  <Observation>
  <id value="ID923-heartrate"/>
    <text>
      <status value="generated"/>
      <div xmlns="http://www.w3.org/1999/xhtml">2006-04-05: heart_rate = 28.0 {beats}/min</div>
    </text>
    <code>
      <coding>
        <system value="http://loinc.org"/>
        <code value="8867-4"/>
        <display value="heart_rate"/>
      </coding>
    </code>
    <valueQuantity>
      <value value="28.0"/>
      <unit value="{beats}/min"/>
      <system value="http://unitsofmeasure.org" />
      <code value="{beats}/min"/>
    </valueQuantity>
    
    <effectiveDateTime value="2006-04-05"/>
    <status value="final"/>
    <reliability value="ok"/>
    <subject>
      <reference value="Patient/ID880378"/>
    </subject>
    <encounter>
      <reference value="Encounter/ID923"/>
    </encounter>
    
  </Observation>
  
  </resource>
  <request>
    <method value="PUT"/>
    <url value="Observation/ID923-heartrate"/>
  </request>
</entry>
<entry>
  <resource>
    
    
  <Observation>
  <id value="ID923-respiratoryrate"/>
    <text>
      <status value="generated"/>
      <div xmlns="http://www.w3.org/1999/xhtml">2006-04-05: respiratory_rate = 13.0 {breaths}/min</div>
    </text>
    <code>
      <coding>
        <system value="http://loinc.org"/>
        <code value="9279-1"/>
        <display value="respiratory_rate"/>
      </coding>
    </code>
    <valueQuantity>
      <value value="13.0"/>
      <unit value="{breaths}/min"/>
      <system value="http://unitsofmeasure.org" />
      <code value="{breaths}/min"/>
    </valueQuantity>
    
    <effectiveDateTime value="2006-04-05"/>
    <status value="final"/>
    <reliability value="ok"/>
    <subject>
      <reference value="Patient/ID880378"/>
    </subject>
    <encounter>
      <reference value="Encounter/ID923"/>
    </encounter>
    
  </Observation>
  
  </resource>
  <request>
    <method value="PUT"/>
    <url value="Observation/ID923-respiratoryrate"/>
  </request>
</entry>
<entry>
  <resource>
    
    
  <Observation>
  <id value="ID923-temperature"/>
    <text>
      <status value="generated"/>
      <div xmlns="http://www.w3.org/1999/xhtml">2006-04-05: temperature = 37.44444 Cel</div>
    </text>
    <code>
      <coding>
        <system value="http://loinc.org"/>
        <code value="8310-5"/>
        <display value="temperature"/>
      </coding>
    </code>
    <valueQuantity>
      <value value="37.44444"/>
      <unit value="Cel"/>
      <system value="http://unitsofmeasure.org" />
      <code value="Cel"/>
    </valueQuantity>
    
    <effectiveDateTime value="2006-04-05"/>
    <status value="final"/>
    <reliability value="ok"/>
    <subject>
      <reference value="Patient/ID880378"/>
    </subject>
    <encounter>
      <reference value="Encounter/ID923"/>
    </encounter>
    
  </Observation>
  
  </resource>
  <request>
    <method value="PUT"/>
    <url value="Observation/ID923-temperature"/>
  </request>
</entry>
<entry>
  <resource>
    
    
  <Observation>
  <id value="ID923-weight"/>
    <text>
      <status value="generated"/>
      <div xmlns="http://www.w3.org/1999/xhtml">2006-04-05: weight = 22.63426 kg</div>
    </text>
    <code>
      <coding>
        <system value="http://loinc.org"/>
        <code value="3141-9"/>
        <display value="weight"/>
      </coding>
    </code>
    <valueQuantity>
      <value value="22.63426"/>
      <unit value="kg"/>
      <system value="http://unitsofmeasure.org" />
      <code value="kg"/>
    </valueQuantity>
    
    <effectiveDateTime value="2006-04-05"/>
    <status value="final"/>
    <reliability value="ok"/>
    <subject>
      <reference value="Patient/ID880378"/>
    </subject>
    <encounter>
      <reference value="Encounter/ID923"/>
    </encounter>
    
  </Observation>
  
  </resource>
  <request>
    <method value="PUT"/>
    <url value="Observation/ID923-weight"/>
  </request>
</entry>
<entry>
  <resource>
    
    
  <Observation>
  <id value="ID923-bmi"/>
    <text>
      <status value="generated"/>
      <div xmlns="http://www.w3.org/1999/xhtml">2006-04-05: bmi = 15.8 kg/m2</div>
    </text>
    <code>
      <coding>
        <system value="http://loinc.org"/>
        <code value="39156-5"/>
        <display value="bmi"/>
      </coding>
    </code>
    <valueQuantity>
      <value value="15.8"/>
      <unit value="kg/m2"/>
      <system value="http://unitsofmeasure.org" />
      <code value="kg/m2"/>
    </valueQuantity>
    
    <effectiveDateTime value="2006-04-05"/>
    <status value="final"/>
    <reliability value="ok"/>
    <subject>
      <reference value="Patient/ID880378"/>
    </subject>
    <encounter>
      <reference value="Encounter/ID923"/>
    </encounter>
    
  </Observation>
  
  </resource>
  <request>
    <method value="PUT"/>
    <url value="Observation/ID923-bmi"/>
  </request>
</entry>
<entry>
  <resource>
    
    
  <Observation>
  <id value="ID923-oxygensaturation"/>
    <text>
      <status value="generated"/>
      <div xmlns="http://www.w3.org/1999/xhtml">2006-04-05: oxygen_saturation = 100.0 %{HemoglobinSaturation}</div>
    </text>
    <code>
      <coding>
        <system value="http://loinc.org"/>
        <code value="2710-2"/>
        <display value="oxygen_saturation"/>
      </coding>
    </code>
    <valueQuantity>
      <value value="100.0"/>
      <unit value="%{HemoglobinSaturation}"/>
      <system value="http://unitsofmeasure.org" />
      <code value="%{HemoglobinSaturation}"/>
    </valueQuantity>
    
    <effectiveDateTime value="2006-04-05"/>
    <status value="final"/>
    <reliability value="ok"/>
    <subject>
      <reference value="Patient/ID880378"/>
    </subject>
    <encounter>
      <reference value="Encounter/ID923"/>
    </encounter>
    
  </Observation>
  
  </resource>
  <request>
    <method value="PUT"/>
    <url value="Observation/ID923-oxygensaturation"/>
  </request>
</entry>
<entry>
  <resource>
    
    
  <Observation>
  <id value="ID924-height"/>
    <text>
      <status value="generated"/>
      <div xmlns="http://www.w3.org/1999/xhtml">2006-04-24: height = 119.634 cm</div>
    </text>
    <code>
      <coding>
        <system value="http://loinc.org"/>
        <code value="8302-2"/>
        <display value="height"/>
      </coding>
    </code>
    <valueQuantity>
      <value value="119.634"/>
      <unit value="cm"/>
      <system value="http://unitsofmeasure.org" />
      <code value="cm"/>
    </valueQuantity>
    
    <effectiveDateTime value="2006-04-24"/>
    <status value="final"/>
    <reliability value="ok"/>
    <subject>
      <reference value="Patient/ID880378"/>
    </subject>
    <encounter>
      <reference value="Encounter/ID924"/>
    </encounter>
    
  </Observation>
  
  </resource>
  <request>
    <method value="PUT"/>
    <url value="Observation/ID924-height"/>
  </request>
</entry>
<entry>
  <resource>
    
    
  <Observation>
  <id value="ID924-heartrate"/>
    <text>
      <status value="generated"/>
      <div xmlns="http://www.w3.org/1999/xhtml">2006-04-24: heart_rate = 29.0 {beats}/min</div>
    </text>
    <code>
      <coding>
        <system value="http://loinc.org"/>
        <code value="8867-4"/>
        <display value="heart_rate"/>
      </coding>
    </code>
    <valueQuantity>
      <value value="29.0"/>
      <unit value="{beats}/min"/>
      <system value="http://unitsofmeasure.org" />
      <code value="{beats}/min"/>
    </valueQuantity>
    
    <effectiveDateTime value="2006-04-24"/>
    <status value="final"/>
    <reliability value="ok"/>
    <subject>
      <reference value="Patient/ID880378"/>
    </subject>
    <encounter>
      <reference value="Encounter/ID924"/>
    </encounter>
    
  </Observation>
  
  </resource>
  <request>
    <method value="PUT"/>
    <url value="Observation/ID924-heartrate"/>
  </request>
</entry>
<entry>
  <resource>
    
    
  <Observation>
  <id value="ID924-respiratoryrate"/>
    <text>
      <status value="generated"/>
      <div xmlns="http://www.w3.org/1999/xhtml">2006-04-24: respiratory_rate = 13.0 {breaths}/min</div>
    </text>
    <code>
      <coding>
        <system value="http://loinc.org"/>
        <code value="9279-1"/>
        <display value="respiratory_rate"/>
      </coding>
    </code>
    <valueQuantity>
      <value value="13.0"/>
      <unit value="{breaths}/min"/>
      <system value="http://unitsofmeasure.org" />
      <code value="{breaths}/min"/>
    </valueQuantity>
    
    <effectiveDateTime value="2006-04-24"/>
    <status value="final"/>
    <reliability value="ok"/>
    <subject>
      <reference value="Patient/ID880378"/>
    </subject>
    <encounter>
      <reference value="Encounter/ID924"/>
    </encounter>
    
  </Observation>
  
  </resource>
  <request>
    <method value="PUT"/>
    <url value="Observation/ID924-respiratoryrate"/>
  </request>
</entry>
<entry>
  <resource>
    
    
  <Observation>
  <id value="ID924-temperature"/>
    <text>
      <status value="generated"/>
      <div xmlns="http://www.w3.org/1999/xhtml">2006-04-24: temperature = 37.44444 Cel</div>
    </text>
    <code>
      <coding>
        <system value="http://loinc.org"/>
        <code value="8310-5"/>
        <display value="temperature"/>
      </coding>
    </code>
    <valueQuantity>
      <value value="37.44444"/>
      <unit value="Cel"/>
      <system value="http://unitsofmeasure.org" />
      <code value="Cel"/>
    </valueQuantity>
    
    <effectiveDateTime value="2006-04-24"/>
    <status value="final"/>
    <reliability value="ok"/>
    <subject>
      <reference value="Patient/ID880378"/>
    </subject>
    <encounter>
      <reference value="Encounter/ID924"/>
    </encounter>
    
  </Observation>
  
  </resource>
  <request>
    <method value="PUT"/>
    <url value="Observation/ID924-temperature"/>
  </request>
</entry>
<entry>
  <resource>
    
    
  <Observation>
  <id value="ID924-weight"/>
    <text>
      <status value="generated"/>
      <div xmlns="http://www.w3.org/1999/xhtml">2006-04-24: weight = 22.8157 kg</div>
    </text>
    <code>
      <coding>
        <system value="http://loinc.org"/>
        <code value="3141-9"/>
        <display value="weight"/>
      </coding>
    </code>
    <valueQuantity>
      <value value="22.8157"/>
      <unit value="kg"/>
      <system value="http://unitsofmeasure.org" />
      <code value="kg"/>
    </valueQuantity>
    
    <effectiveDateTime value="2006-04-24"/>
    <status value="final"/>
    <reliability value="ok"/>
    <subject>
      <reference value="Patient/ID880378"/>
    </subject>
    <encounter>
      <reference value="Encounter/ID924"/>
    </encounter>
    
  </Observation>
  
  </resource>
  <request>
    <method value="PUT"/>
    <url value="Observation/ID924-weight"/>
  </request>
</entry>
<entry>
  <resource>
    
    
  <Observation>
  <id value="ID924-bmi"/>
    <text>
      <status value="generated"/>
      <div xmlns="http://www.w3.org/1999/xhtml">2006-04-24: bmi = 15.9 kg/m2</div>
    </text>
    <code>
      <coding>
        <system value="http://loinc.org"/>
        <code value="39156-5"/>
        <display value="bmi"/>
      </coding>
    </code>
    <valueQuantity>
      <value value="15.9"/>
      <unit value="kg/m2"/>
      <system value="http://unitsofmeasure.org" />
      <code value="kg/m2"/>
    </valueQuantity>
    
    <effectiveDateTime value="2006-04-24"/>
    <status value="final"/>
    <reliability value="ok"/>
    <subject>
      <reference value="Patient/ID880378"/>
    </subject>
    <encounter>
      <reference value="Encounter/ID924"/>
    </encounter>
    
  </Observation>
  
  </resource>
  <request>
    <method value="PUT"/>
    <url value="Observation/ID924-bmi"/>
  </request>
</entry>
<entry>
  <resource>
    
    
  <Observation>
  <id value="ID924-oxygensaturation"/>
    <text>
      <status value="generated"/>
      <div xmlns="http://www.w3.org/1999/xhtml">2006-04-24: oxygen_saturation = 100.0 %{HemoglobinSaturation}</div>
    </text>
    <code>
      <coding>
        <system value="http://loinc.org"/>
        <code value="2710-2"/>
        <display value="oxygen_saturation"/>
      </coding>
    </code>
    <valueQuantity>
      <value value="100.0"/>
      <unit value="%{HemoglobinSaturation}"/>
      <system value="http://unitsofmeasure.org" />
      <code value="%{HemoglobinSaturation}"/>
    </valueQuantity>
    
    <effectiveDateTime value="2006-04-24"/>
    <status value="final"/>
    <reliability value="ok"/>
    <subject>
      <reference value="Patient/ID880378"/>
    </subject>
    <encounter>
      <reference value="Encounter/ID924"/>
    </encounter>
    
  </Observation>
  
  </resource>
  <request>
    <method value="PUT"/>
    <url value="Observation/ID924-oxygensaturation"/>
  </request>
</entry>
<entry>
  <resource>
    
    
  <Observation>
  <id value="ID925-height"/>
    <text>
      <status value="generated"/>
      <div xmlns="http://www.w3.org/1999/xhtml">2006-07-06: height = 119.634 cm</div>
    </text>
    <code>
      <coding>
        <system value="http://loinc.org"/>
        <code value="8302-2"/>
        <display value="height"/>
      </coding>
    </code>
    <valueQuantity>
      <value value="119.634"/>
      <unit value="cm"/>
      <system value="http://unitsofmeasure.org" />
      <code value="cm"/>
    </valueQuantity>
    
    <effectiveDateTime value="2006-07-06"/>
    <status value="final"/>
    <reliability value="ok"/>
    <subject>
      <reference value="Patient/ID880378"/>
    </subject>
    <encounter>
      <reference value="Encounter/ID925"/>
    </encounter>
    
  </Observation>
  
  </resource>
  <request>
    <method value="PUT"/>
    <url value="Observation/ID925-height"/>
  </request>
</entry>
<entry>
  <resource>
    
    
  <Observation>
  <id value="ID925-heartrate"/>
    <text>
      <status value="generated"/>
      <div xmlns="http://www.w3.org/1999/xhtml">2006-07-06: heart_rate = 64.0 {beats}/min</div>
    </text>
    <code>
      <coding>
        <system value="http://loinc.org"/>
        <code value="8867-4"/>
        <display value="heart_rate"/>
      </coding>
    </code>
    <valueQuantity>
      <value value="64.0"/>
      <unit value="{beats}/min"/>
      <system value="http://unitsofmeasure.org" />
      <code value="{beats}/min"/>
    </valueQuantity>
    
    <effectiveDateTime value="2006-07-06"/>
    <status value="final"/>
    <reliability value="ok"/>
    <subject>
      <reference value="Patient/ID880378"/>
    </subject>
    <encounter>
      <reference value="Encounter/ID925"/>
    </encounter>
    
  </Observation>
  
  </resource>
  <request>
    <method value="PUT"/>
    <url value="Observation/ID925-heartrate"/>
  </request>
</entry>
<entry>
  <resource>
    
    
  <Observation>
  <id value="ID925-respiratoryrate"/>
    <text>
      <status value="generated"/>
      <div xmlns="http://www.w3.org/1999/xhtml">2006-07-06: respiratory_rate = 13.0 {breaths}/min</div>
    </text>
    <code>
      <coding>
        <system value="http://loinc.org"/>
        <code value="9279-1"/>
        <display value="respiratory_rate"/>
      </coding>
    </code>
    <valueQuantity>
      <value value="13.0"/>
      <unit value="{breaths}/min"/>
      <system value="http://unitsofmeasure.org" />
      <code value="{breaths}/min"/>
    </valueQuantity>
    
    <effectiveDateTime value="2006-07-06"/>
    <status value="final"/>
    <reliability value="ok"/>
    <subject>
      <reference value="Patient/ID880378"/>
    </subject>
    <encounter>
      <reference value="Encounter/ID925"/>
    </encounter>
    
  </Observation>
  
  </resource>
  <request>
    <method value="PUT"/>
    <url value="Observation/ID925-respiratoryrate"/>
  </request>
</entry>
<entry>
  <resource>
    
    
  <Observation>
  <id value="ID925-temperature"/>
    <text>
      <status value="generated"/>
      <div xmlns="http://www.w3.org/1999/xhtml">2006-07-06: temperature = 37.44444 Cel</div>
    </text>
    <code>
      <coding>
        <system value="http://loinc.org"/>
        <code value="8310-5"/>
        <display value="temperature"/>
      </coding>
    </code>
    <valueQuantity>
      <value value="37.44444"/>
      <unit value="Cel"/>
      <system value="http://unitsofmeasure.org" />
      <code value="Cel"/>
    </valueQuantity>
    
    <effectiveDateTime value="2006-07-06"/>
    <status value="final"/>
    <reliability value="ok"/>
    <subject>
      <reference value="Patient/ID880378"/>
    </subject>
    <encounter>
      <reference value="Encounter/ID925"/>
    </encounter>
    
  </Observation>
  
  </resource>
  <request>
    <method value="PUT"/>
    <url value="Observation/ID925-temperature"/>
  </request>
</entry>
<entry>
  <resource>
    
    
  <Observation>
  <id value="ID925-weight"/>
    <text>
      <status value="generated"/>
      <div xmlns="http://www.w3.org/1999/xhtml">2006-07-06: weight = 22.90641 kg</div>
    </text>
    <code>
      <coding>
        <system value="http://loinc.org"/>
        <code value="3141-9"/>
        <display value="weight"/>
      </coding>
    </code>
    <valueQuantity>
      <value value="22.90641"/>
      <unit value="kg"/>
      <system value="http://unitsofmeasure.org" />
      <code value="kg"/>
    </valueQuantity>
    
    <effectiveDateTime value="2006-07-06"/>
    <status value="final"/>
    <reliability value="ok"/>
    <subject>
      <reference value="Patient/ID880378"/>
    </subject>
    <encounter>
      <reference value="Encounter/ID925"/>
    </encounter>
    
  </Observation>
  
  </resource>
  <request>
    <method value="PUT"/>
    <url value="Observation/ID925-weight"/>
  </request>
</entry>
<entry>
  <resource>
    
    
  <Observation>
  <id value="ID925-bmi"/>
    <text>
      <status value="generated"/>
      <div xmlns="http://www.w3.org/1999/xhtml">2006-07-06: bmi = 16.0 kg/m2</div>
    </text>
    <code>
      <coding>
        <system value="http://loinc.org"/>
        <code value="39156-5"/>
        <display value="bmi"/>
      </coding>
    </code>
    <valueQuantity>
      <value value="16.0"/>
      <unit value="kg/m2"/>
      <system value="http://unitsofmeasure.org" />
      <code value="kg/m2"/>
    </valueQuantity>
    
    <effectiveDateTime value="2006-07-06"/>
    <status value="final"/>
    <reliability value="ok"/>
    <subject>
      <reference value="Patient/ID880378"/>
    </subject>
    <encounter>
      <reference value="Encounter/ID925"/>
    </encounter>
    
  </Observation>
  
  </resource>
  <request>
    <method value="PUT"/>
    <url value="Observation/ID925-bmi"/>
  </request>
</entry>
<entry>
  <resource>
    
    
  <Observation>
  <id value="ID925-oxygensaturation"/>
    <text>
      <status value="generated"/>
      <div xmlns="http://www.w3.org/1999/xhtml">2006-07-06: oxygen_saturation = 100.0 %{HemoglobinSaturation}</div>
    </text>
    <code>
      <coding>
        <system value="http://loinc.org"/>
        <code value="2710-2"/>
        <display value="oxygen_saturation"/>
      </coding>
    </code>
    <valueQuantity>
      <value value="100.0"/>
      <unit value="%{HemoglobinSaturation}"/>
      <system value="http://unitsofmeasure.org" />
      <code value="%{HemoglobinSaturation}"/>
    </valueQuantity>
    
    <effectiveDateTime value="2006-07-06"/>
    <status value="final"/>
    <reliability value="ok"/>
    <subject>
      <reference value="Patient/ID880378"/>
    </subject>
    <encounter>
      <reference value="Encounter/ID925"/>
    </encounter>
    
  </Observation>
  
  </resource>
  <request>
    <method value="PUT"/>
    <url value="Observation/ID925-oxygensaturation"/>
  </request>
</entry>
<entry>
  <resource>
    
    
  <Observation>
  <id value="ID926-height"/>
    <text>
      <status value="generated"/>
      <div xmlns="http://www.w3.org/1999/xhtml">2006-07-07: height = 119.634 cm</div>
    </text>
    <code>
      <coding>
        <system value="http://loinc.org"/>
        <code value="8302-2"/>
        <display value="height"/>
      </coding>
    </code>
    <valueQuantity>
      <value value="119.634"/>
      <unit value="cm"/>
      <system value="http://unitsofmeasure.org" />
      <code value="cm"/>
    </valueQuantity>
    
    <effectiveDateTime value="2006-07-07"/>
    <status value="final"/>
    <reliability value="ok"/>
    <subject>
      <reference value="Patient/ID880378"/>
    </subject>
    <encounter>
      <reference value="Encounter/ID926"/>
    </encounter>
    
  </Observation>
  
  </resource>
  <request>
    <method value="PUT"/>
    <url value="Observation/ID926-height"/>
  </request>
</entry>
<entry>
  <resource>
    
    
  <Observation>
  <id value="ID926-heartrate"/>
    <text>
      <status value="generated"/>
      <div xmlns="http://www.w3.org/1999/xhtml">2006-07-07: heart_rate = 23.0 {beats}/min</div>
    </text>
    <code>
      <coding>
        <system value="http://loinc.org"/>
        <code value="8867-4"/>
        <display value="heart_rate"/>
      </coding>
    </code>
    <valueQuantity>
      <value value="23.0"/>
      <unit value="{beats}/min"/>
      <system value="http://unitsofmeasure.org" />
      <code value="{beats}/min"/>
    </valueQuantity>
    
    <effectiveDateTime value="2006-07-07"/>
    <status value="final"/>
    <reliability value="ok"/>
    <subject>
      <reference value="Patient/ID880378"/>
    </subject>
    <encounter>
      <reference value="Encounter/ID926"/>
    </encounter>
    
  </Observation>
  
  </resource>
  <request>
    <method value="PUT"/>
    <url value="Observation/ID926-heartrate"/>
  </request>
</entry>
<entry>
  <resource>
    
    
  <Observation>
  <id value="ID926-respiratoryrate"/>
    <text>
      <status value="generated"/>
      <div xmlns="http://www.w3.org/1999/xhtml">2006-07-07: respiratory_rate = 13.0 {breaths}/min</div>
    </text>
    <code>
      <coding>
        <system value="http://loinc.org"/>
        <code value="9279-1"/>
        <display value="respiratory_rate"/>
      </coding>
    </code>
    <valueQuantity>
      <value value="13.0"/>
      <unit value="{breaths}/min"/>
      <system value="http://unitsofmeasure.org" />
      <code value="{breaths}/min"/>
    </valueQuantity>
    
    <effectiveDateTime value="2006-07-07"/>
    <status value="final"/>
    <reliability value="ok"/>
    <subject>
      <reference value="Patient/ID880378"/>
    </subject>
    <encounter>
      <reference value="Encounter/ID926"/>
    </encounter>
    
  </Observation>
  
  </resource>
  <request>
    <method value="PUT"/>
    <url value="Observation/ID926-respiratoryrate"/>
  </request>
</entry>
<entry>
  <resource>
    
    
  <Observation>
  <id value="ID926-temperature"/>
    <text>
      <status value="generated"/>
      <div xmlns="http://www.w3.org/1999/xhtml">2006-07-07: temperature = 37.38889 Cel</div>
    </text>
    <code>
      <coding>
        <system value="http://loinc.org"/>
        <code value="8310-5"/>
        <display value="temperature"/>
      </coding>
    </code>
    <valueQuantity>
      <value value="37.38889"/>
      <unit value="Cel"/>
      <system value="http://unitsofmeasure.org" />
      <code value="Cel"/>
    </valueQuantity>
    
    <effectiveDateTime value="2006-07-07"/>
    <status value="final"/>
    <reliability value="ok"/>
    <subject>
      <reference value="Patient/ID880378"/>
    </subject>
    <encounter>
      <reference value="Encounter/ID926"/>
    </encounter>
    
  </Observation>
  
  </resource>
  <request>
    <method value="PUT"/>
    <url value="Observation/ID926-temperature"/>
  </request>
</entry>
<entry>
  <resource>
    
    
  <Observation>
  <id value="ID926-weight"/>
    <text>
      <status value="generated"/>
      <div xmlns="http://www.w3.org/1999/xhtml">2006-07-07: weight = 22.54354 kg</div>
    </text>
    <code>
      <coding>
        <system value="http://loinc.org"/>
        <code value="3141-9"/>
        <display value="weight"/>
      </coding>
    </code>
    <valueQuantity>
      <value value="22.54354"/>
      <unit value="kg"/>
      <system value="http://unitsofmeasure.org" />
      <code value="kg"/>
    </valueQuantity>
    
    <effectiveDateTime value="2006-07-07"/>
    <status value="final"/>
    <reliability value="ok"/>
    <subject>
      <reference value="Patient/ID880378"/>
    </subject>
    <encounter>
      <reference value="Encounter/ID926"/>
    </encounter>
    
  </Observation>
  
  </resource>
  <request>
    <method value="PUT"/>
    <url value="Observation/ID926-weight"/>
  </request>
</entry>
<entry>
  <resource>
    
    
  <Observation>
  <id value="ID926-bmi"/>
    <text>
      <status value="generated"/>
      <div xmlns="http://www.w3.org/1999/xhtml">2006-07-07: bmi = 15.7 kg/m2</div>
    </text>
    <code>
      <coding>
        <system value="http://loinc.org"/>
        <code value="39156-5"/>
        <display value="bmi"/>
      </coding>
    </code>
    <valueQuantity>
      <value value="15.7"/>
      <unit value="kg/m2"/>
      <system value="http://unitsofmeasure.org" />
      <code value="kg/m2"/>
    </valueQuantity>
    
    <effectiveDateTime value="2006-07-07"/>
    <status value="final"/>
    <reliability value="ok"/>
    <subject>
      <reference value="Patient/ID880378"/>
    </subject>
    <encounter>
      <reference value="Encounter/ID926"/>
    </encounter>
    
  </Observation>
  
  </resource>
  <request>
    <method value="PUT"/>
    <url value="Observation/ID926-bmi"/>
  </request>
</entry>
<entry>
  <resource>
    
    
  <Observation>
  <id value="ID926-oxygensaturation"/>
    <text>
      <status value="generated"/>
      <div xmlns="http://www.w3.org/1999/xhtml">2006-07-07: oxygen_saturation = 100.0 %{HemoglobinSaturation}</div>
    </text>
    <code>
      <coding>
        <system value="http://loinc.org"/>
        <code value="2710-2"/>
        <display value="oxygen_saturation"/>
      </coding>
    </code>
    <valueQuantity>
      <value value="100.0"/>
      <unit value="%{HemoglobinSaturation}"/>
      <system value="http://unitsofmeasure.org" />
      <code value="%{HemoglobinSaturation}"/>
    </valueQuantity>
    
    <effectiveDateTime value="2006-07-07"/>
    <status value="final"/>
    <reliability value="ok"/>
    <subject>
      <reference value="Patient/ID880378"/>
    </subject>
    <encounter>
      <reference value="Encounter/ID926"/>
    </encounter>
    
  </Observation>
  
  </resource>
  <request>
    <method value="PUT"/>
    <url value="Observation/ID926-oxygensaturation"/>
  </request>
</entry>
<entry>
  <resource>
    
    
  <Observation>
  <id value="ID927-height"/>
    <text>
      <status value="generated"/>
      <div xmlns="http://www.w3.org/1999/xhtml">2007-02-16: height = 126.492 cm</div>
    </text>
    <code>
      <coding>
        <system value="http://loinc.org"/>
        <code value="8302-2"/>
        <display value="height"/>
      </coding>
    </code>
    <valueQuantity>
      <value value="126.492"/>
      <unit value="cm"/>
      <system value="http://unitsofmeasure.org" />
      <code value="cm"/>
    </valueQuantity>
    
    <effectiveDateTime value="2007-02-16"/>
    <status value="final"/>
    <reliability value="ok"/>
    <subject>
      <reference value="Patient/ID880378"/>
    </subject>
    <encounter>
      <reference value="Encounter/ID927"/>
    </encounter>
    
  </Observation>
  
  </resource>
  <request>
    <method value="PUT"/>
    <url value="Observation/ID927-height"/>
  </request>
</entry>
<entry>
  <resource>
    
    
  <Observation>
  <id value="ID927-heartrate"/>
    <text>
      <status value="generated"/>
      <div xmlns="http://www.w3.org/1999/xhtml">2007-02-16: heart_rate = 67.0 {beats}/min</div>
    </text>
    <code>
      <coding>
        <system value="http://loinc.org"/>
        <code value="8867-4"/>
        <display value="heart_rate"/>
      </coding>
    </code>
    <valueQuantity>
      <value value="67.0"/>
      <unit value="{beats}/min"/>
      <system value="http://unitsofmeasure.org" />
      <code value="{beats}/min"/>
    </valueQuantity>
    
    <effectiveDateTime value="2007-02-16"/>
    <status value="final"/>
    <reliability value="ok"/>
    <subject>
      <reference value="Patient/ID880378"/>
    </subject>
    <encounter>
      <reference value="Encounter/ID927"/>
    </encounter>
    
  </Observation>
  
  </resource>
  <request>
    <method value="PUT"/>
    <url value="Observation/ID927-heartrate"/>
  </request>
</entry>
<entry>
  <resource>
    
    
  <Observation>
  <id value="ID927-respiratoryrate"/>
    <text>
      <status value="generated"/>
      <div xmlns="http://www.w3.org/1999/xhtml">2007-02-16: respiratory_rate = 13.0 {breaths}/min</div>
    </text>
    <code>
      <coding>
        <system value="http://loinc.org"/>
        <code value="9279-1"/>
        <display value="respiratory_rate"/>
      </coding>
    </code>
    <valueQuantity>
      <value value="13.0"/>
      <unit value="{breaths}/min"/>
      <system value="http://unitsofmeasure.org" />
      <code value="{breaths}/min"/>
    </valueQuantity>
    
    <effectiveDateTime value="2007-02-16"/>
    <status value="final"/>
    <reliability value="ok"/>
    <subject>
      <reference value="Patient/ID880378"/>
    </subject>
    <encounter>
      <reference value="Encounter/ID927"/>
    </encounter>
    
  </Observation>
  
  </resource>
  <request>
    <method value="PUT"/>
    <url value="Observation/ID927-respiratoryrate"/>
  </request>
</entry>
<entry>
  <resource>
    
    
  <Observation>
  <id value="ID927-temperature"/>
    <text>
      <status value="generated"/>
      <div xmlns="http://www.w3.org/1999/xhtml">2007-02-16: temperature = 37.33333 Cel</div>
    </text>
    <code>
      <coding>
        <system value="http://loinc.org"/>
        <code value="8310-5"/>
        <display value="temperature"/>
      </coding>
    </code>
    <valueQuantity>
      <value value="37.33333"/>
      <unit value="Cel"/>
      <system value="http://unitsofmeasure.org" />
      <code value="Cel"/>
    </valueQuantity>
    
    <effectiveDateTime value="2007-02-16"/>
    <status value="final"/>
    <reliability value="ok"/>
    <subject>
      <reference value="Patient/ID880378"/>
    </subject>
    <encounter>
      <reference value="Encounter/ID927"/>
    </encounter>
    
  </Observation>
  
  </resource>
  <request>
    <method value="PUT"/>
    <url value="Observation/ID927-temperature"/>
  </request>
</entry>
<entry>
  <resource>
    
    
  <Observation>
  <id value="ID927-weight"/>
    <text>
      <status value="generated"/>
      <div xmlns="http://www.w3.org/1999/xhtml">2007-02-16: weight = 26.62587 kg</div>
    </text>
    <code>
      <coding>
        <system value="http://loinc.org"/>
        <code value="3141-9"/>
        <display value="weight"/>
      </coding>
    </code>
    <valueQuantity>
      <value value="26.62587"/>
      <unit value="kg"/>
      <system value="http://unitsofmeasure.org" />
      <code value="kg"/>
    </valueQuantity>
    
    <effectiveDateTime value="2007-02-16"/>
    <status value="final"/>
    <reliability value="ok"/>
    <subject>
      <reference value="Patient/ID880378"/>
    </subject>
    <encounter>
      <reference value="Encounter/ID927"/>
    </encounter>
    
  </Observation>
  
  </resource>
  <request>
    <method value="PUT"/>
    <url value="Observation/ID927-weight"/>
  </request>
</entry>
<entry>
  <resource>
    
    
  <Observation>
  <id value="ID927-bmi"/>
    <text>
      <status value="generated"/>
      <div xmlns="http://www.w3.org/1999/xhtml">2007-02-16: bmi = 16.7 kg/m2</div>
    </text>
    <code>
      <coding>
        <system value="http://loinc.org"/>
        <code value="39156-5"/>
        <display value="bmi"/>
      </coding>
    </code>
    <valueQuantity>
      <value value="16.7"/>
      <unit value="kg/m2"/>
      <system value="http://unitsofmeasure.org" />
      <code value="kg/m2"/>
    </valueQuantity>
    
    <effectiveDateTime value="2007-02-16"/>
    <status value="final"/>
    <reliability value="ok"/>
    <subject>
      <reference value="Patient/ID880378"/>
    </subject>
    <encounter>
      <reference value="Encounter/ID927"/>
    </encounter>
    
  </Observation>
  
  </resource>
  <request>
    <method value="PUT"/>
    <url value="Observation/ID927-bmi"/>
  </request>
</entry>
<entry>
  <resource>
    
    
  <Observation>
  <id value="ID927-oxygensaturation"/>
    <text>
      <status value="generated"/>
      <div xmlns="http://www.w3.org/1999/xhtml">2007-02-16: oxygen_saturation = 100.0 %{HemoglobinSaturation}</div>
    </text>
    <code>
      <coding>
        <system value="http://loinc.org"/>
        <code value="2710-2"/>
        <display value="oxygen_saturation"/>
      </coding>
    </code>
    <valueQuantity>
      <value value="100.0"/>
      <unit value="%{HemoglobinSaturation}"/>
      <system value="http://unitsofmeasure.org" />
      <code value="%{HemoglobinSaturation}"/>
    </valueQuantity>
    
    <effectiveDateTime value="2007-02-16"/>
    <status value="final"/>
    <reliability value="ok"/>
    <subject>
      <reference value="Patient/ID880378"/>
    </subject>
    <encounter>
      <reference value="Encounter/ID927"/>
    </encounter>
    
  </Observation>
  
  </resource>
  <request>
    <method value="PUT"/>
    <url value="Observation/ID927-oxygensaturation"/>
  </request>
</entry>
<entry>
  <resource>
    
    
  <Observation>
  <id value="ID928-height"/>
    <text>
      <status value="generated"/>
      <div xmlns="http://www.w3.org/1999/xhtml">2007-02-23: height = 126.492 cm</div>
    </text>
    <code>
      <coding>
        <system value="http://loinc.org"/>
        <code value="8302-2"/>
        <display value="height"/>
      </coding>
    </code>
    <valueQuantity>
      <value value="126.492"/>
      <unit value="cm"/>
      <system value="http://unitsofmeasure.org" />
      <code value="cm"/>
    </valueQuantity>
    
    <effectiveDateTime value="2007-02-23"/>
    <status value="final"/>
    <reliability value="ok"/>
    <subject>
      <reference value="Patient/ID880378"/>
    </subject>
    <encounter>
      <reference value="Encounter/ID928"/>
    </encounter>
    
  </Observation>
  
  </resource>
  <request>
    <method value="PUT"/>
    <url value="Observation/ID928-height"/>
  </request>
</entry>
<entry>
  <resource>
    
    
  <Observation>
  <id value="ID928-heartrate"/>
    <text>
      <status value="generated"/>
      <div xmlns="http://www.w3.org/1999/xhtml">2007-02-23: heart_rate = 47.0 {beats}/min</div>
    </text>
    <code>
      <coding>
        <system value="http://loinc.org"/>
        <code value="8867-4"/>
        <display value="heart_rate"/>
      </coding>
    </code>
    <valueQuantity>
      <value value="47.0"/>
      <unit value="{beats}/min"/>
      <system value="http://unitsofmeasure.org" />
      <code value="{beats}/min"/>
    </valueQuantity>
    
    <effectiveDateTime value="2007-02-23"/>
    <status value="final"/>
    <reliability value="ok"/>
    <subject>
      <reference value="Patient/ID880378"/>
    </subject>
    <encounter>
      <reference value="Encounter/ID928"/>
    </encounter>
    
  </Observation>
  
  </resource>
  <request>
    <method value="PUT"/>
    <url value="Observation/ID928-heartrate"/>
  </request>
</entry>
<entry>
  <resource>
    
    
  <Observation>
  <id value="ID928-respiratoryrate"/>
    <text>
      <status value="generated"/>
      <div xmlns="http://www.w3.org/1999/xhtml">2007-02-23: respiratory_rate = 12.0 {breaths}/min</div>
    </text>
    <code>
      <coding>
        <system value="http://loinc.org"/>
        <code value="9279-1"/>
        <display value="respiratory_rate"/>
      </coding>
    </code>
    <valueQuantity>
      <value value="12.0"/>
      <unit value="{breaths}/min"/>
      <system value="http://unitsofmeasure.org" />
      <code value="{breaths}/min"/>
    </valueQuantity>
    
    <effectiveDateTime value="2007-02-23"/>
    <status value="final"/>
    <reliability value="ok"/>
    <subject>
      <reference value="Patient/ID880378"/>
    </subject>
    <encounter>
      <reference value="Encounter/ID928"/>
    </encounter>
    
  </Observation>
  
  </resource>
  <request>
    <method value="PUT"/>
    <url value="Observation/ID928-respiratoryrate"/>
  </request>
</entry>
<entry>
  <resource>
    
    
  <Observation>
  <id value="ID928-temperature"/>
    <text>
      <status value="generated"/>
      <div xmlns="http://www.w3.org/1999/xhtml">2007-02-23: temperature = 37.33333 Cel</div>
    </text>
    <code>
      <coding>
        <system value="http://loinc.org"/>
        <code value="8310-5"/>
        <display value="temperature"/>
      </coding>
    </code>
    <valueQuantity>
      <value value="37.33333"/>
      <unit value="Cel"/>
      <system value="http://unitsofmeasure.org" />
      <code value="Cel"/>
    </valueQuantity>
    
    <effectiveDateTime value="2007-02-23"/>
    <status value="final"/>
    <reliability value="ok"/>
    <subject>
      <reference value="Patient/ID880378"/>
    </subject>
    <encounter>
      <reference value="Encounter/ID928"/>
    </encounter>
    
  </Observation>
  
  </resource>
  <request>
    <method value="PUT"/>
    <url value="Observation/ID928-temperature"/>
  </request>
</entry>
<entry>
  <resource>
    
    
  <Observation>
  <id value="ID928-weight"/>
    <text>
      <status value="generated"/>
      <div xmlns="http://www.w3.org/1999/xhtml">2007-02-23: weight = 26.58051 kg</div>
    </text>
    <code>
      <coding>
        <system value="http://loinc.org"/>
        <code value="3141-9"/>
        <display value="weight"/>
      </coding>
    </code>
    <valueQuantity>
      <value value="26.58051"/>
      <unit value="kg"/>
      <system value="http://unitsofmeasure.org" />
      <code value="kg"/>
    </valueQuantity>
    
    <effectiveDateTime value="2007-02-23"/>
    <status value="final"/>
    <reliability value="ok"/>
    <subject>
      <reference value="Patient/ID880378"/>
    </subject>
    <encounter>
      <reference value="Encounter/ID928"/>
    </encounter>
    
  </Observation>
  
  </resource>
  <request>
    <method value="PUT"/>
    <url value="Observation/ID928-weight"/>
  </request>
</entry>
<entry>
  <resource>
    
    
  <Observation>
  <id value="ID928-bmi"/>
    <text>
      <status value="generated"/>
      <div xmlns="http://www.w3.org/1999/xhtml">2007-02-23: bmi = 16.6 kg/m2</div>
    </text>
    <code>
      <coding>
        <system value="http://loinc.org"/>
        <code value="39156-5"/>
        <display value="bmi"/>
      </coding>
    </code>
    <valueQuantity>
      <value value="16.6"/>
      <unit value="kg/m2"/>
      <system value="http://unitsofmeasure.org" />
      <code value="kg/m2"/>
    </valueQuantity>
    
    <effectiveDateTime value="2007-02-23"/>
    <status value="final"/>
    <reliability value="ok"/>
    <subject>
      <reference value="Patient/ID880378"/>
    </subject>
    <encounter>
      <reference value="Encounter/ID928"/>
    </encounter>
    
  </Observation>
  
  </resource>
  <request>
    <method value="PUT"/>
    <url value="Observation/ID928-bmi"/>
  </request>
</entry>
<entry>
  <resource>
    
    
  <Observation>
  <id value="ID928-oxygensaturation"/>
    <text>
      <status value="generated"/>
      <div xmlns="http://www.w3.org/1999/xhtml">2007-02-23: oxygen_saturation = 100.0 %{HemoglobinSaturation}</div>
    </text>
    <code>
      <coding>
        <system value="http://loinc.org"/>
        <code value="2710-2"/>
        <display value="oxygen_saturation"/>
      </coding>
    </code>
    <valueQuantity>
      <value value="100.0"/>
      <unit value="%{HemoglobinSaturation}"/>
      <system value="http://unitsofmeasure.org" />
      <code value="%{HemoglobinSaturation}"/>
    </valueQuantity>
    
    <effectiveDateTime value="2007-02-23"/>
    <status value="final"/>
    <reliability value="ok"/>
    <subject>
      <reference value="Patient/ID880378"/>
    </subject>
    <encounter>
      <reference value="Encounter/ID928"/>
    </encounter>
    
  </Observation>
  
  </resource>
  <request>
    <method value="PUT"/>
    <url value="Observation/ID928-oxygensaturation"/>
  </request>
</entry>
<entry>
  <resource>
    
    
  <Observation>
  <id value="ID929-height"/>
    <text>
      <status value="generated"/>
      <div xmlns="http://www.w3.org/1999/xhtml">2007-11-15: height = 126.492 cm</div>
    </text>
    <code>
      <coding>
        <system value="http://loinc.org"/>
        <code value="8302-2"/>
        <display value="height"/>
      </coding>
    </code>
    <valueQuantity>
      <value value="126.492"/>
      <unit value="cm"/>
      <system value="http://unitsofmeasure.org" />
      <code value="cm"/>
    </valueQuantity>
    
    <effectiveDateTime value="2007-11-15"/>
    <status value="final"/>
    <reliability value="ok"/>
    <subject>
      <reference value="Patient/ID880378"/>
    </subject>
    <encounter>
      <reference value="Encounter/ID929"/>
    </encounter>
    
  </Observation>
  
  </resource>
  <request>
    <method value="PUT"/>
    <url value="Observation/ID929-height"/>
  </request>
</entry>
<entry>
  <resource>
    
    
  <Observation>
  <id value="ID929-heartrate"/>
    <text>
      <status value="generated"/>
      <div xmlns="http://www.w3.org/1999/xhtml">2007-11-15: heart_rate = 67.0 {beats}/min</div>
    </text>
    <code>
      <coding>
        <system value="http://loinc.org"/>
        <code value="8867-4"/>
        <display value="heart_rate"/>
      </coding>
    </code>
    <valueQuantity>
      <value value="67.0"/>
      <unit value="{beats}/min"/>
      <system value="http://unitsofmeasure.org" />
      <code value="{beats}/min"/>
    </valueQuantity>
    
    <effectiveDateTime value="2007-11-15"/>
    <status value="final"/>
    <reliability value="ok"/>
    <subject>
      <reference value="Patient/ID880378"/>
    </subject>
    <encounter>
      <reference value="Encounter/ID929"/>
    </encounter>
    
  </Observation>
  
  </resource>
  <request>
    <method value="PUT"/>
    <url value="Observation/ID929-heartrate"/>
  </request>
</entry>
<entry>
  <resource>
    
    
  <Observation>
  <id value="ID929-respiratoryrate"/>
    <text>
      <status value="generated"/>
      <div xmlns="http://www.w3.org/1999/xhtml">2007-11-15: respiratory_rate = 12.0 {breaths}/min</div>
    </text>
    <code>
      <coding>
        <system value="http://loinc.org"/>
        <code value="9279-1"/>
        <display value="respiratory_rate"/>
      </coding>
    </code>
    <valueQuantity>
      <value value="12.0"/>
      <unit value="{breaths}/min"/>
      <system value="http://unitsofmeasure.org" />
      <code value="{breaths}/min"/>
    </valueQuantity>
    
    <effectiveDateTime value="2007-11-15"/>
    <status value="final"/>
    <reliability value="ok"/>
    <subject>
      <reference value="Patient/ID880378"/>
    </subject>
    <encounter>
      <reference value="Encounter/ID929"/>
    </encounter>
    
  </Observation>
  
  </resource>
  <request>
    <method value="PUT"/>
    <url value="Observation/ID929-respiratoryrate"/>
  </request>
</entry>
<entry>
  <resource>
    
    
  <Observation>
  <id value="ID929-temperature"/>
    <text>
      <status value="generated"/>
      <div xmlns="http://www.w3.org/1999/xhtml">2007-11-15: temperature = 37.38889 Cel</div>
    </text>
    <code>
      <coding>
        <system value="http://loinc.org"/>
        <code value="8310-5"/>
        <display value="temperature"/>
      </coding>
    </code>
    <valueQuantity>
      <value value="37.38889"/>
      <unit value="Cel"/>
      <system value="http://unitsofmeasure.org" />
      <code value="Cel"/>
    </valueQuantity>
    
    <effectiveDateTime value="2007-11-15"/>
    <status value="final"/>
    <reliability value="ok"/>
    <subject>
      <reference value="Patient/ID880378"/>
    </subject>
    <encounter>
      <reference value="Encounter/ID929"/>
    </encounter>
    
  </Observation>
  
  </resource>
  <request>
    <method value="PUT"/>
    <url value="Observation/ID929-temperature"/>
  </request>
</entry>
<entry>
  <resource>
    
    
  <Observation>
  <id value="ID929-weight"/>
    <text>
      <status value="generated"/>
      <div xmlns="http://www.w3.org/1999/xhtml">2007-11-15: weight = 26.53515 kg</div>
    </text>
    <code>
      <coding>
        <system value="http://loinc.org"/>
        <code value="3141-9"/>
        <display value="weight"/>
      </coding>
    </code>
    <valueQuantity>
      <value value="26.53515"/>
      <unit value="kg"/>
      <system value="http://unitsofmeasure.org" />
      <code value="kg"/>
    </valueQuantity>
    
    <effectiveDateTime value="2007-11-15"/>
    <status value="final"/>
    <reliability value="ok"/>
    <subject>
      <reference value="Patient/ID880378"/>
    </subject>
    <encounter>
      <reference value="Encounter/ID929"/>
    </encounter>
    
  </Observation>
  
  </resource>
  <request>
    <method value="PUT"/>
    <url value="Observation/ID929-weight"/>
  </request>
</entry>
<entry>
  <resource>
    
    
  <Observation>
  <id value="ID929-bmi"/>
    <text>
      <status value="generated"/>
      <div xmlns="http://www.w3.org/1999/xhtml">2007-11-15: bmi = 16.6 kg/m2</div>
    </text>
    <code>
      <coding>
        <system value="http://loinc.org"/>
        <code value="39156-5"/>
        <display value="bmi"/>
      </coding>
    </code>
    <valueQuantity>
      <value value="16.6"/>
      <unit value="kg/m2"/>
      <system value="http://unitsofmeasure.org" />
      <code value="kg/m2"/>
    </valueQuantity>
    
    <effectiveDateTime value="2007-11-15"/>
    <status value="final"/>
    <reliability value="ok"/>
    <subject>
      <reference value="Patient/ID880378"/>
    </subject>
    <encounter>
      <reference value="Encounter/ID929"/>
    </encounter>
    
  </Observation>
  
  </resource>
  <request>
    <method value="PUT"/>
    <url value="Observation/ID929-bmi"/>
  </request>
</entry>
<entry>
  <resource>
    
    
  <Observation>
  <id value="ID929-oxygensaturation"/>
    <text>
      <status value="generated"/>
      <div xmlns="http://www.w3.org/1999/xhtml">2007-11-15: oxygen_saturation = 100.0 %{HemoglobinSaturation}</div>
    </text>
    <code>
      <coding>
        <system value="http://loinc.org"/>
        <code value="2710-2"/>
        <display value="oxygen_saturation"/>
      </coding>
    </code>
    <valueQuantity>
      <value value="100.0"/>
      <unit value="%{HemoglobinSaturation}"/>
      <system value="http://unitsofmeasure.org" />
      <code value="%{HemoglobinSaturation}"/>
    </valueQuantity>
    
    <effectiveDateTime value="2007-11-15"/>
    <status value="final"/>
    <reliability value="ok"/>
    <subject>
      <reference value="Patient/ID880378"/>
    </subject>
    <encounter>
      <reference value="Encounter/ID929"/>
    </encounter>
    
  </Observation>
  
  </resource>
  <request>
    <method value="PUT"/>
    <url value="Observation/ID929-oxygensaturation"/>
  </request>
</entry>
<entry>
  <resource>
    
    
  <Observation>
  <id value="ID930-height"/>
    <text>
      <status value="generated"/>
      <div xmlns="http://www.w3.org/1999/xhtml">2008-01-16: height = 132.334 cm</div>
    </text>
    <code>
      <coding>
        <system value="http://loinc.org"/>
        <code value="8302-2"/>
        <display value="height"/>
      </coding>
    </code>
    <valueQuantity>
      <value value="132.334"/>
      <unit value="cm"/>
      <system value="http://unitsofmeasure.org" />
      <code value="cm"/>
    </valueQuantity>
    
    <effectiveDateTime value="2008-01-16"/>
    <status value="final"/>
    <reliability value="ok"/>
    <subject>
      <reference value="Patient/ID880378"/>
    </subject>
    <encounter>
      <reference value="Encounter/ID930"/>
    </encounter>
    
  </Observation>
  
  </resource>
  <request>
    <method value="PUT"/>
    <url value="Observation/ID930-height"/>
  </request>
</entry>
<entry>
  <resource>
    
    
  <Observation>
  <id value="ID930-heartrate"/>
    <text>
      <status value="generated"/>
      <div xmlns="http://www.w3.org/1999/xhtml">2008-01-16: heart_rate = 44.0 {beats}/min</div>
    </text>
    <code>
      <coding>
        <system value="http://loinc.org"/>
        <code value="8867-4"/>
        <display value="heart_rate"/>
      </coding>
    </code>
    <valueQuantity>
      <value value="44.0"/>
      <unit value="{beats}/min"/>
      <system value="http://unitsofmeasure.org" />
      <code value="{beats}/min"/>
    </valueQuantity>
    
    <effectiveDateTime value="2008-01-16"/>
    <status value="final"/>
    <reliability value="ok"/>
    <subject>
      <reference value="Patient/ID880378"/>
    </subject>
    <encounter>
      <reference value="Encounter/ID930"/>
    </encounter>
    
  </Observation>
  
  </resource>
  <request>
    <method value="PUT"/>
    <url value="Observation/ID930-heartrate"/>
  </request>
</entry>
<entry>
  <resource>
    
    
  <Observation>
  <id value="ID930-respiratoryrate"/>
    <text>
      <status value="generated"/>
      <div xmlns="http://www.w3.org/1999/xhtml">2008-01-16: respiratory_rate = 15.0 {breaths}/min</div>
    </text>
    <code>
      <coding>
        <system value="http://loinc.org"/>
        <code value="9279-1"/>
        <display value="respiratory_rate"/>
      </coding>
    </code>
    <valueQuantity>
      <value value="15.0"/>
      <unit value="{breaths}/min"/>
      <system value="http://unitsofmeasure.org" />
      <code value="{breaths}/min"/>
    </valueQuantity>
    
    <effectiveDateTime value="2008-01-16"/>
    <status value="final"/>
    <reliability value="ok"/>
    <subject>
      <reference value="Patient/ID880378"/>
    </subject>
    <encounter>
      <reference value="Encounter/ID930"/>
    </encounter>
    
  </Observation>
  
  </resource>
  <request>
    <method value="PUT"/>
    <url value="Observation/ID930-respiratoryrate"/>
  </request>
</entry>
<entry>
  <resource>
    
    
  <Observation>
  <id value="ID930-temperature"/>
    <text>
      <status value="generated"/>
      <div xmlns="http://www.w3.org/1999/xhtml">2008-01-16: temperature = 37.27778 Cel</div>
    </text>
    <code>
      <coding>
        <system value="http://loinc.org"/>
        <code value="8310-5"/>
        <display value="temperature"/>
      </coding>
    </code>
    <valueQuantity>
      <value value="37.27778"/>
      <unit value="Cel"/>
      <system value="http://unitsofmeasure.org" />
      <code value="Cel"/>
    </valueQuantity>
    
    <effectiveDateTime value="2008-01-16"/>
    <status value="final"/>
    <reliability value="ok"/>
    <subject>
      <reference value="Patient/ID880378"/>
    </subject>
    <encounter>
      <reference value="Encounter/ID930"/>
    </encounter>
    
  </Observation>
  
  </resource>
  <request>
    <method value="PUT"/>
    <url value="Observation/ID930-temperature"/>
  </request>
</entry>
<entry>
  <resource>
    
    
  <Observation>
  <id value="ID930-weight"/>
    <text>
      <status value="generated"/>
      <div xmlns="http://www.w3.org/1999/xhtml">2008-01-16: weight = 29.61958 kg</div>
    </text>
    <code>
      <coding>
        <system value="http://loinc.org"/>
        <code value="3141-9"/>
        <display value="weight"/>
      </coding>
    </code>
    <valueQuantity>
      <value value="29.61958"/>
      <unit value="kg"/>
      <system value="http://unitsofmeasure.org" />
      <code value="kg"/>
    </valueQuantity>
    
    <effectiveDateTime value="2008-01-16"/>
    <status value="final"/>
    <reliability value="ok"/>
    <subject>
      <reference value="Patient/ID880378"/>
    </subject>
    <encounter>
      <reference value="Encounter/ID930"/>
    </encounter>
    
  </Observation>
  
  </resource>
  <request>
    <method value="PUT"/>
    <url value="Observation/ID930-weight"/>
  </request>
</entry>
<entry>
  <resource>
    
    
  <Observation>
  <id value="ID930-bmi"/>
    <text>
      <status value="generated"/>
      <div xmlns="http://www.w3.org/1999/xhtml">2008-01-16: bmi = 16.9 kg/m2</div>
    </text>
    <code>
      <coding>
        <system value="http://loinc.org"/>
        <code value="39156-5"/>
        <display value="bmi"/>
      </coding>
    </code>
    <valueQuantity>
      <value value="16.9"/>
      <unit value="kg/m2"/>
      <system value="http://unitsofmeasure.org" />
      <code value="kg/m2"/>
    </valueQuantity>
    
    <effectiveDateTime value="2008-01-16"/>
    <status value="final"/>
    <reliability value="ok"/>
    <subject>
      <reference value="Patient/ID880378"/>
    </subject>
    <encounter>
      <reference value="Encounter/ID930"/>
    </encounter>
    
  </Observation>
  
  </resource>
  <request>
    <method value="PUT"/>
    <url value="Observation/ID930-bmi"/>
  </request>
</entry>
<entry>
  <resource>
    
    
  <Observation>
  <id value="ID930-oxygensaturation"/>
    <text>
      <status value="generated"/>
      <div xmlns="http://www.w3.org/1999/xhtml">2008-01-16: oxygen_saturation = 100.0 %{HemoglobinSaturation}</div>
    </text>
    <code>
      <coding>
        <system value="http://loinc.org"/>
        <code value="2710-2"/>
        <display value="oxygen_saturation"/>
      </coding>
    </code>
    <valueQuantity>
      <value value="100.0"/>
      <unit value="%{HemoglobinSaturation}"/>
      <system value="http://unitsofmeasure.org" />
      <code value="%{HemoglobinSaturation}"/>
    </valueQuantity>
    
    <effectiveDateTime value="2008-01-16"/>
    <status value="final"/>
    <reliability value="ok"/>
    <subject>
      <reference value="Patient/ID880378"/>
    </subject>
    <encounter>
      <reference value="Encounter/ID930"/>
    </encounter>
    
  </Observation>
  
  </resource>
  <request>
    <method value="PUT"/>
    <url value="Observation/ID930-oxygensaturation"/>
  </request>
</entry>
<entry>
  <resource>
    
    
  <Observation>
  <id value="ID931-height"/>
    <text>
      <status value="generated"/>
      <div xmlns="http://www.w3.org/1999/xhtml">2008-01-17: height = 132.334 cm</div>
    </text>
    <code>
      <coding>
        <system value="http://loinc.org"/>
        <code value="8302-2"/>
        <display value="height"/>
      </coding>
    </code>
    <valueQuantity>
      <value value="132.334"/>
      <unit value="cm"/>
      <system value="http://unitsofmeasure.org" />
      <code value="cm"/>
    </valueQuantity>
    
    <effectiveDateTime value="2008-01-17"/>
    <status value="final"/>
    <reliability value="ok"/>
    <subject>
      <reference value="Patient/ID880378"/>
    </subject>
    <encounter>
      <reference value="Encounter/ID931"/>
    </encounter>
    
  </Observation>
  
  </resource>
  <request>
    <method value="PUT"/>
    <url value="Observation/ID931-height"/>
  </request>
</entry>
<entry>
  <resource>
    
    
  <Observation>
  <id value="ID931-heartrate"/>
    <text>
      <status value="generated"/>
      <div xmlns="http://www.w3.org/1999/xhtml">2008-01-17: heart_rate = 65.0 {beats}/min</div>
    </text>
    <code>
      <coding>
        <system value="http://loinc.org"/>
        <code value="8867-4"/>
        <display value="heart_rate"/>
      </coding>
    </code>
    <valueQuantity>
      <value value="65.0"/>
      <unit value="{beats}/min"/>
      <system value="http://unitsofmeasure.org" />
      <code value="{beats}/min"/>
    </valueQuantity>
    
    <effectiveDateTime value="2008-01-17"/>
    <status value="final"/>
    <reliability value="ok"/>
    <subject>
      <reference value="Patient/ID880378"/>
    </subject>
    <encounter>
      <reference value="Encounter/ID931"/>
    </encounter>
    
  </Observation>
  
  </resource>
  <request>
    <method value="PUT"/>
    <url value="Observation/ID931-heartrate"/>
  </request>
</entry>
<entry>
  <resource>
    
    
  <Observation>
  <id value="ID931-respiratoryrate"/>
    <text>
      <status value="generated"/>
      <div xmlns="http://www.w3.org/1999/xhtml">2008-01-17: respiratory_rate = 15.0 {breaths}/min</div>
    </text>
    <code>
      <coding>
        <system value="http://loinc.org"/>
        <code value="9279-1"/>
        <display value="respiratory_rate"/>
      </coding>
    </code>
    <valueQuantity>
      <value value="15.0"/>
      <unit value="{breaths}/min"/>
      <system value="http://unitsofmeasure.org" />
      <code value="{breaths}/min"/>
    </valueQuantity>
    
    <effectiveDateTime value="2008-01-17"/>
    <status value="final"/>
    <reliability value="ok"/>
    <subject>
      <reference value="Patient/ID880378"/>
    </subject>
    <encounter>
      <reference value="Encounter/ID931"/>
    </encounter>
    
  </Observation>
  
  </resource>
  <request>
    <method value="PUT"/>
    <url value="Observation/ID931-respiratoryrate"/>
  </request>
</entry>
<entry>
  <resource>
    
    
  <Observation>
  <id value="ID931-temperature"/>
    <text>
      <status value="generated"/>
      <div xmlns="http://www.w3.org/1999/xhtml">2008-01-17: temperature = 37.27778 Cel</div>
    </text>
    <code>
      <coding>
        <system value="http://loinc.org"/>
        <code value="8310-5"/>
        <display value="temperature"/>
      </coding>
    </code>
    <valueQuantity>
      <value value="37.27778"/>
      <unit value="Cel"/>
      <system value="http://unitsofmeasure.org" />
      <code value="Cel"/>
    </valueQuantity>
    
    <effectiveDateTime value="2008-01-17"/>
    <status value="final"/>
    <reliability value="ok"/>
    <subject>
      <reference value="Patient/ID880378"/>
    </subject>
    <encounter>
      <reference value="Encounter/ID931"/>
    </encounter>
    
  </Observation>
  
  </resource>
  <request>
    <method value="PUT"/>
    <url value="Observation/ID931-temperature"/>
  </request>
</entry>
<entry>
  <resource>
    
    
  <Observation>
  <id value="ID931-weight"/>
    <text>
      <status value="generated"/>
      <div xmlns="http://www.w3.org/1999/xhtml">2008-01-17: weight = 29.43814 kg</div>
    </text>
    <code>
      <coding>
        <system value="http://loinc.org"/>
        <code value="3141-9"/>
        <display value="weight"/>
      </coding>
    </code>
    <valueQuantity>
      <value value="29.43814"/>
      <unit value="kg"/>
      <system value="http://unitsofmeasure.org" />
      <code value="kg"/>
    </valueQuantity>
    
    <effectiveDateTime value="2008-01-17"/>
    <status value="final"/>
    <reliability value="ok"/>
    <subject>
      <reference value="Patient/ID880378"/>
    </subject>
    <encounter>
      <reference value="Encounter/ID931"/>
    </encounter>
    
  </Observation>
  
  </resource>
  <request>
    <method value="PUT"/>
    <url value="Observation/ID931-weight"/>
  </request>
</entry>
<entry>
  <resource>
    
    
  <Observation>
  <id value="ID931-bmi"/>
    <text>
      <status value="generated"/>
      <div xmlns="http://www.w3.org/1999/xhtml">2008-01-17: bmi = 16.8 kg/m2</div>
    </text>
    <code>
      <coding>
        <system value="http://loinc.org"/>
        <code value="39156-5"/>
        <display value="bmi"/>
      </coding>
    </code>
    <valueQuantity>
      <value value="16.8"/>
      <unit value="kg/m2"/>
      <system value="http://unitsofmeasure.org" />
      <code value="kg/m2"/>
    </valueQuantity>
    
    <effectiveDateTime value="2008-01-17"/>
    <status value="final"/>
    <reliability value="ok"/>
    <subject>
      <reference value="Patient/ID880378"/>
    </subject>
    <encounter>
      <reference value="Encounter/ID931"/>
    </encounter>
    
  </Observation>
  
  </resource>
  <request>
    <method value="PUT"/>
    <url value="Observation/ID931-bmi"/>
  </request>
</entry>
<entry>
  <resource>
    
    
  <Observation>
  <id value="ID931-oxygensaturation"/>
    <text>
      <status value="generated"/>
      <div xmlns="http://www.w3.org/1999/xhtml">2008-01-17: oxygen_saturation = 100.0 %{HemoglobinSaturation}</div>
    </text>
    <code>
      <coding>
        <system value="http://loinc.org"/>
        <code value="2710-2"/>
        <display value="oxygen_saturation"/>
      </coding>
    </code>
    <valueQuantity>
      <value value="100.0"/>
      <unit value="%{HemoglobinSaturation}"/>
      <system value="http://unitsofmeasure.org" />
      <code value="%{HemoglobinSaturation}"/>
    </valueQuantity>
    
    <effectiveDateTime value="2008-01-17"/>
    <status value="final"/>
    <reliability value="ok"/>
    <subject>
      <reference value="Patient/ID880378"/>
    </subject>
    <encounter>
      <reference value="Encounter/ID931"/>
    </encounter>
    
  </Observation>
  
  </resource>
  <request>
    <method value="PUT"/>
    <url value="Observation/ID931-oxygensaturation"/>
  </request>
</entry>
<entry>
  <resource>
    
    
  <Observation>
  <id value="ID932-height"/>
    <text>
      <status value="generated"/>
      <div xmlns="http://www.w3.org/1999/xhtml">2008-03-10: height = 132.334 cm</div>
    </text>
    <code>
      <coding>
        <system value="http://loinc.org"/>
        <code value="8302-2"/>
        <display value="height"/>
      </coding>
    </code>
    <valueQuantity>
      <value value="132.334"/>
      <unit value="cm"/>
      <system value="http://unitsofmeasure.org" />
      <code value="cm"/>
    </valueQuantity>
    
    <effectiveDateTime value="2008-03-10"/>
    <status value="final"/>
    <reliability value="ok"/>
    <subject>
      <reference value="Patient/ID880378"/>
    </subject>
    <encounter>
      <reference value="Encounter/ID932"/>
    </encounter>
    
  </Observation>
  
  </resource>
  <request>
    <method value="PUT"/>
    <url value="Observation/ID932-height"/>
  </request>
</entry>
<entry>
  <resource>
    
    
  <Observation>
  <id value="ID932-heartrate"/>
    <text>
      <status value="generated"/>
      <div xmlns="http://www.w3.org/1999/xhtml">2008-03-10: heart_rate = 37.0 {beats}/min</div>
    </text>
    <code>
      <coding>
        <system value="http://loinc.org"/>
        <code value="8867-4"/>
        <display value="heart_rate"/>
      </coding>
    </code>
    <valueQuantity>
      <value value="37.0"/>
      <unit value="{beats}/min"/>
      <system value="http://unitsofmeasure.org" />
      <code value="{beats}/min"/>
    </valueQuantity>
    
    <effectiveDateTime value="2008-03-10"/>
    <status value="final"/>
    <reliability value="ok"/>
    <subject>
      <reference value="Patient/ID880378"/>
    </subject>
    <encounter>
      <reference value="Encounter/ID932"/>
    </encounter>
    
  </Observation>
  
  </resource>
  <request>
    <method value="PUT"/>
    <url value="Observation/ID932-heartrate"/>
  </request>
</entry>
<entry>
  <resource>
    
    
  <Observation>
  <id value="ID932-respiratoryrate"/>
    <text>
      <status value="generated"/>
      <div xmlns="http://www.w3.org/1999/xhtml">2008-03-10: respiratory_rate = 15.0 {breaths}/min</div>
    </text>
    <code>
      <coding>
        <system value="http://loinc.org"/>
        <code value="9279-1"/>
        <display value="respiratory_rate"/>
      </coding>
    </code>
    <valueQuantity>
      <value value="15.0"/>
      <unit value="{breaths}/min"/>
      <system value="http://unitsofmeasure.org" />
      <code value="{breaths}/min"/>
    </valueQuantity>
    
    <effectiveDateTime value="2008-03-10"/>
    <status value="final"/>
    <reliability value="ok"/>
    <subject>
      <reference value="Patient/ID880378"/>
    </subject>
    <encounter>
      <reference value="Encounter/ID932"/>
    </encounter>
    
  </Observation>
  
  </resource>
  <request>
    <method value="PUT"/>
    <url value="Observation/ID932-respiratoryrate"/>
  </request>
</entry>
<entry>
  <resource>
    
    
  <Observation>
  <id value="ID932-temperature"/>
    <text>
      <status value="generated"/>
      <div xmlns="http://www.w3.org/1999/xhtml">2008-03-10: temperature = 37.33333 Cel</div>
    </text>
    <code>
      <coding>
        <system value="http://loinc.org"/>
        <code value="8310-5"/>
        <display value="temperature"/>
      </coding>
    </code>
    <valueQuantity>
      <value value="37.33333"/>
      <unit value="Cel"/>
      <system value="http://unitsofmeasure.org" />
      <code value="Cel"/>
    </valueQuantity>
    
    <effectiveDateTime value="2008-03-10"/>
    <status value="final"/>
    <reliability value="ok"/>
    <subject>
      <reference value="Patient/ID880378"/>
    </subject>
    <encounter>
      <reference value="Encounter/ID932"/>
    </encounter>
    
  </Observation>
  
  </resource>
  <request>
    <method value="PUT"/>
    <url value="Observation/ID932-temperature"/>
  </request>
</entry>
<entry>
  <resource>
    
    
  <Observation>
  <id value="ID932-weight"/>
    <text>
      <status value="generated"/>
      <div xmlns="http://www.w3.org/1999/xhtml">2008-03-10: weight = 29.7103 kg</div>
    </text>
    <code>
      <coding>
        <system value="http://loinc.org"/>
        <code value="3141-9"/>
        <display value="weight"/>
      </coding>
    </code>
    <valueQuantity>
      <value value="29.7103"/>
      <unit value="kg"/>
      <system value="http://unitsofmeasure.org" />
      <code value="kg"/>
    </valueQuantity>
    
    <effectiveDateTime value="2008-03-10"/>
    <status value="final"/>
    <reliability value="ok"/>
    <subject>
      <reference value="Patient/ID880378"/>
    </subject>
    <encounter>
      <reference value="Encounter/ID932"/>
    </encounter>
    
  </Observation>
  
  </resource>
  <request>
    <method value="PUT"/>
    <url value="Observation/ID932-weight"/>
  </request>
</entry>
<entry>
  <resource>
    
    
  <Observation>
  <id value="ID932-bmi"/>
    <text>
      <status value="generated"/>
      <div xmlns="http://www.w3.org/1999/xhtml">2008-03-10: bmi = 17.0 kg/m2</div>
    </text>
    <code>
      <coding>
        <system value="http://loinc.org"/>
        <code value="39156-5"/>
        <display value="bmi"/>
      </coding>
    </code>
    <valueQuantity>
      <value value="17.0"/>
      <unit value="kg/m2"/>
      <system value="http://unitsofmeasure.org" />
      <code value="kg/m2"/>
    </valueQuantity>
    
    <effectiveDateTime value="2008-03-10"/>
    <status value="final"/>
    <reliability value="ok"/>
    <subject>
      <reference value="Patient/ID880378"/>
    </subject>
    <encounter>
      <reference value="Encounter/ID932"/>
    </encounter>
    
  </Observation>
  
  </resource>
  <request>
    <method value="PUT"/>
    <url value="Observation/ID932-bmi"/>
  </request>
</entry>
<entry>
  <resource>
    
    
  <Observation>
  <id value="ID932-oxygensaturation"/>
    <text>
      <status value="generated"/>
      <div xmlns="http://www.w3.org/1999/xhtml">2008-03-10: oxygen_saturation = 100.0 %{HemoglobinSaturation}</div>
    </text>
    <code>
      <coding>
        <system value="http://loinc.org"/>
        <code value="2710-2"/>
        <display value="oxygen_saturation"/>
      </coding>
    </code>
    <valueQuantity>
      <value value="100.0"/>
      <unit value="%{HemoglobinSaturation}"/>
      <system value="http://unitsofmeasure.org" />
      <code value="%{HemoglobinSaturation}"/>
    </valueQuantity>
    
    <effectiveDateTime value="2008-03-10"/>
    <status value="final"/>
    <reliability value="ok"/>
    <subject>
      <reference value="Patient/ID880378"/>
    </subject>
    <encounter>
      <reference value="Encounter/ID932"/>
    </encounter>
    
  </Observation>
  
  </resource>
  <request>
    <method value="PUT"/>
    <url value="Observation/ID932-oxygensaturation"/>
  </request>
</entry>
<entry>
  <resource>
    
    
<MedicationOrder>
  <id value="ID62-mp"/>
  <text>
    <status value="generated"/>
    <div xmlns="http://www.w3.org/1999/xhtml">
      Amoxicillin 120 MG/ML / clavulanate potassium 8.58 MG/ML Oral Suspension (rxnorm: 617993)
    </div>
  </text>

  <contained>
    <Medication>
      <id value="med"/>
      <name value="Amoxicillin 120 MG/ML / clavulanate potassium 8.58 MG/ML Oral Suspension"/>
      <code>
	<coding>
	<system value="http://www.nlm.nih.gov/research/umls/rxnorm"/>
	  <code value="617993"/>
	  <display value="Amoxicillin 120 MG/ML / clavulanate potassium 8.58 MG/ML Oral Suspension"/>
	</coding>
      </code>
    </Medication>
  </contained>

  <status value="active" />
  <patient>
    <reference value="Patient/ID880378"/>
  </patient>

  <medication>
    <reference value="#med"/>
  </medication>

  <dosageInstruction>
    <scheduledTiming>
      <repeat>
        <bounds>
          <start value="2005-08-10"/>
        </bounds>
        <frequency value="2"/>
        <duration value="1"/>
        <durationUnits value="d"/>
      </repeat>
      
    </scheduledTiming>
    <doseQuantity>
      <value value="5"/>
      <unit value="mL"/>
      <system value="http://unitsofmeasure.org"/>
      <code value="mL"/>
    </doseQuantity>
    
    <text value="5 mL bid x 10 days"/>
  </dosageInstruction>
  <dispense>
     <numberOfRepeatsAllowed value="1"/>
     
     <quantity>
        <value value="1"/>
        <unit value="mL"/>
        <system value="http://unitsofmeasure.org"/>
        <code value="mL"/>
     </quantity>
     
     <expectedSupplyDuration>
        <value value="10"/>
        <unit value="days"/>
        <system value="http://unitsofmeasure.org"/>
        <code value="d"/>
     </expectedSupplyDuration>
     
  </dispense>
  
</MedicationOrder>

  </resource>
  <request>
    <method value="PUT"/>
    <url value="MedicationOrder/ID62-mp"/>
  </request>
</entry>
<entry>
  <resource>
    
    
<MedicationDispense>
  <id value="ID1262"/>
  <!--  insert contents here  -->
   <text>
    <status value="generated"/>
    <div xmlns="http://www.w3.org/1999/xhtml">
      Dispensed 200 tablets = 10 day supply of Amoxicillin 120 MG/ML / clavulanate potassium 8.58 MG/ML Oral Suspension
    </div>
  </text>  

  <contained>
    <Medication>
      <id value="med"/>
      <name value="Amoxicillin 120 MG/ML / clavulanate potassium 8.58 MG/ML Oral Suspension"/>
      <code>
	<coding>
	<system value="http://www.nlm.nih.gov/research/umls/rxnorm"/>
	  <code value="617993"/>
	  <display value="Amoxicillin 120 MG/ML / clavulanate potassium 8.58 MG/ML Oral Suspension"/>
	</coding>
      </code>
    </Medication>
  </contained>
  
  <status value="completed"/>

  <patient>
    <reference value="Patient/ID880378"/>
  </patient>

  <authorizingPrescription>
    <reference value="MedicationOrder/ID62-mp"/>
  </authorizingPrescription>

  <quantity>
      <value value="200"/>
      <unit value="tablets"/>
      <system value="http://unitsofmeasure.org"/>
      <code value="{tablets}"/>
  </quantity>

  <daysSupply>
      <value value="10" />
      <unit value="days" />
      <system value="http://unitsofmeasure.org" />
      <code value="d" />
  </daysSupply>

  <medication>
      <reference value="#med"/>
  </medication>

  <whenHandedOver value="2009-07-31"/>

</MedicationDispense>

  </resource>
  <request>
    <method value="PUT"/>
    <url value="MedicationDispense/ID1262"/>
  </request>
</entry>
<entry>
  <resource>
    
    
<MedicationOrder>
  <id value="ID63-mp"/>
  <text>
    <status value="generated"/>
    <div xmlns="http://www.w3.org/1999/xhtml">
      Amoxicillin 80 MG/ML Oral Suspension (rxnorm: 308189)
    </div>
  </text>

  <contained>
    <Medication>
      <id value="med"/>
      <name value="Amoxicillin 80 MG/ML Oral Suspension"/>
      <code>
	<coding>
	<system value="http://www.nlm.nih.gov/research/umls/rxnorm"/>
	  <code value="308189"/>
	  <display value="Amoxicillin 80 MG/ML Oral Suspension"/>
	</coding>
      </code>
    </Medication>
  </contained>

  <status value="active" />
  <patient>
    <reference value="Patient/ID880378"/>
  </patient>

  <medication>
    <reference value="#med"/>
  </medication>

  <dosageInstruction>
    <scheduledTiming>
      <repeat>
        <bounds>
          <start value="2005-12-08"/>
        </bounds>
        <frequency value="2"/>
        <duration value="1"/>
        <durationUnits value="d"/>
      </repeat>
      
    </scheduledTiming>
    <doseQuantity>
      <value value="7"/>
      <unit value="mL"/>
      <system value="http://unitsofmeasure.org"/>
      <code value="mL"/>
    </doseQuantity>
    
    <text value="7 mL bid x 10 days"/>
  </dosageInstruction>
  <dispense>
     <numberOfRepeatsAllowed value="1"/>
     
     <quantity>
        <value value="1"/>
        <unit value="mL"/>
        <system value="http://unitsofmeasure.org"/>
        <code value="mL"/>
     </quantity>
     
     <expectedSupplyDuration>
        <value value="10"/>
        <unit value="days"/>
        <system value="http://unitsofmeasure.org"/>
        <code value="d"/>
     </expectedSupplyDuration>
     
  </dispense>
  
</MedicationOrder>

  </resource>
  <request>
    <method value="PUT"/>
    <url value="MedicationOrder/ID63-mp"/>
  </request>
</entry>
<entry>
  <resource>
    
    
<MedicationDispense>
  <id value="ID1265"/>
  <!--  insert contents here  -->
   <text>
    <status value="generated"/>
    <div xmlns="http://www.w3.org/1999/xhtml">
      Dispensed 300 tablets = 10 day supply of Amoxicillin 80 MG/ML Oral Suspension
    </div>
  </text>  

  <contained>
    <Medication>
      <id value="med"/>
      <name value="Amoxicillin 80 MG/ML Oral Suspension"/>
      <code>
	<coding>
	<system value="http://www.nlm.nih.gov/research/umls/rxnorm"/>
	  <code value="308189"/>
	  <display value="Amoxicillin 80 MG/ML Oral Suspension"/>
	</coding>
      </code>
    </Medication>
  </contained>
  
  <status value="completed"/>

  <patient>
    <reference value="Patient/ID880378"/>
  </patient>

  <authorizingPrescription>
    <reference value="MedicationOrder/ID63-mp"/>
  </authorizingPrescription>

  <quantity>
      <value value="300"/>
      <unit value="tablets"/>
      <system value="http://unitsofmeasure.org"/>
      <code value="{tablets}"/>
  </quantity>

  <daysSupply>
      <value value="10" />
      <unit value="days" />
      <system value="http://unitsofmeasure.org" />
      <code value="d" />
  </daysSupply>

  <medication>
      <reference value="#med"/>
  </medication>

  <whenHandedOver value="2009-07-24"/>

</MedicationDispense>

  </resource>
  <request>
    <method value="PUT"/>
    <url value="MedicationDispense/ID1265"/>
  </request>
</entry>
  <entry>
  <resource>
    
    
  <Condition>
  <id value="ID482-c"/>
    <text>
     <status value="generated"/>
     <div xmlns="http://www.w3.org/1999/xhtml">Abdominal pain</div>   
   </text>
    <patient>
      <reference value="Patient/ID880378"/>
    </patient>
    <code> 
      <coding>
        <system value="http://snomed.info/sct"/>
        <code value="21522001"/>
        <display value="Abdominal pain"/>
      </coding>
      <text value="Abdominal pain"/>
    </code>
   <clinicalStatus value="confirmed"/>
   <onsetDateTime value="2003-11-07"/>
   
  </Condition>
  
  </resource>
  <request>
    <method value="PUT"/>
    <url value="Condition/ID482-c"/>
  </request>
</entry>
  <entry>
  <resource>
    
    
  <Condition>
  <id value="ID483-c"/>
    <text>
     <status value="generated"/>
     <div xmlns="http://www.w3.org/1999/xhtml">Constipation</div>   
   </text>
    <patient>
      <reference value="Patient/ID880378"/>
    </patient>
    <code> 
      <coding>
        <system value="http://snomed.info/sct"/>
        <code value="14760008"/>
        <display value="Constipation"/>
      </coding>
      <text value="Constipation"/>
    </code>
   <clinicalStatus value="confirmed"/>
   <onsetDateTime value="2003-11-07"/>
   
  </Condition>
  
  </resource>
  <request>
    <method value="PUT"/>
    <url value="Condition/ID483-c"/>
  </request>
</entry>
  <entry>
  <resource>
    
    
  <Condition>
  <id value="ID484-c"/>
    <text>
     <status value="generated"/>
     <div xmlns="http://www.w3.org/1999/xhtml">Croup</div>   
   </text>
    <patient>
      <reference value="Patient/ID880378"/>
    </patient>
    <code> 
      <coding>
        <system value="http://snomed.info/sct"/>
        <code value="71186008"/>
        <display value="Croup"/>
      </coding>
      <text value="Croup"/>
    </code>
   <clinicalStatus value="confirmed"/>
   <onsetDateTime value="2004-11-01"/>
   
  </Condition>
  
  </resource>
  <request>
    <method value="PUT"/>
    <url value="Condition/ID484-c"/>
  </request>
</entry>
  <entry>
  <resource>
    
    
  <Condition>
  <id value="ID485-c"/>
    <text>
     <status value="generated"/>
     <div xmlns="http://www.w3.org/1999/xhtml">Otalgia</div>   
   </text>
    <patient>
      <reference value="Patient/ID880378"/>
    </patient>
    <code> 
      <coding>
        <system value="http://snomed.info/sct"/>
        <code value="16001004"/>
        <display value="Otalgia"/>
      </coding>
      <text value="Otalgia"/>
    </code>
   <clinicalStatus value="confirmed"/>
   <onsetDateTime value="2004-11-01"/>
   
  </Condition>
  
  </resource>
  <request>
    <method value="PUT"/>
    <url value="Condition/ID485-c"/>
  </request>
</entry>
  <entry>
  <resource>
    
    
  <Condition>
  <id value="ID486-c"/>
    <text>
     <status value="generated"/>
     <div xmlns="http://www.w3.org/1999/xhtml">Other dyspnea and respiratory abnormality</div>   
   </text>
    <patient>
      <reference value="Patient/ID880378"/>
    </patient>
    <code> 
      <coding>
        <system value="http://snomed.info/sct"/>
        <code value="267036007"/>
        <display value="Other dyspnea and respiratory abnormality"/>
      </coding>
      <text value="Other dyspnea and respiratory abnormality"/>
    </code>
   <clinicalStatus value="confirmed"/>
   <onsetDateTime value="2004-11-01"/>
   
  </Condition>
  
  </resource>
  <request>
    <method value="PUT"/>
    <url value="Condition/ID486-c"/>
  </request>
</entry>
  <entry>
  <resource>
    
    
  <Condition>
  <id value="ID487-c"/>
    <text>
     <status value="generated"/>
     <div xmlns="http://www.w3.org/1999/xhtml">Common cold</div>   
   </text>
    <patient>
      <reference value="Patient/ID880378"/>
    </patient>
    <code> 
      <coding>
        <system value="http://snomed.info/sct"/>
        <code value="82272006"/>
        <display value="Common cold"/>
      </coding>
      <text value="Common cold"/>
    </code>
   <clinicalStatus value="confirmed"/>
   <onsetDateTime value="2004-11-03"/>
   
  </Condition>
  
  </resource>
  <request>
    <method value="PUT"/>
    <url value="Condition/ID487-c"/>
  </request>
</entry>
  <entry>
  <resource>
    
    
  <Condition>
  <id value="ID488-c"/>
    <text>
     <status value="generated"/>
     <div xmlns="http://www.w3.org/1999/xhtml">Acute upper respiratory infection</div>   
   </text>
    <patient>
      <reference value="Patient/ID880378"/>
    </patient>
    <code> 
      <coding>
        <system value="http://snomed.info/sct"/>
        <code value="54150009"/>
        <display value="Acute upper respiratory infection"/>
      </coding>
      <text value="Acute upper respiratory infection"/>
    </code>
   <clinicalStatus value="confirmed"/>
   <onsetDateTime value="2004-12-13"/>
   
  </Condition>
  
  </resource>
  <request>
    <method value="PUT"/>
    <url value="Condition/ID488-c"/>
  </request>
</entry>
  <entry>
  <resource>
    
    
  <Condition>
  <id value="ID489-c"/>
    <text>
     <status value="generated"/>
     <div xmlns="http://www.w3.org/1999/xhtml">Otitis media</div>   
   </text>
    <patient>
      <reference value="Patient/ID880378"/>
    </patient>
    <code> 
      <coding>
        <system value="http://snomed.info/sct"/>
        <code value="65363002"/>
        <display value="Otitis media"/>
      </coding>
      <text value="Otitis media"/>
    </code>
   <clinicalStatus value="confirmed"/>
   <onsetDateTime value="2004-12-13"/>
   
  </Condition>
  
  </resource>
  <request>
    <method value="PUT"/>
    <url value="Condition/ID489-c"/>
  </request>
</entry>
  <entry>
  <resource>
    
    
  <Condition>
  <id value="ID490-c"/>
    <text>
     <status value="generated"/>
     <div xmlns="http://www.w3.org/1999/xhtml">Acute sinusitis</div>   
   </text>
    <patient>
      <reference value="Patient/ID880378"/>
    </patient>
    <code> 
      <coding>
        <system value="http://snomed.info/sct"/>
        <code value="36971009"/>
        <display value="Acute sinusitis"/>
      </coding>
      <text value="Acute sinusitis"/>
    </code>
   <clinicalStatus value="confirmed"/>
   <onsetDateTime value="2005-08-10"/>
   
  </Condition>
  
  </resource>
  <request>
    <method value="PUT"/>
    <url value="Condition/ID490-c"/>
  </request>
</entry>
  <entry>
  <resource>
    
    
  <Condition>
  <id value="ID491-c"/>
    <text>
     <status value="generated"/>
     <div xmlns="http://www.w3.org/1999/xhtml">Needs influenza immunization</div>   
   </text>
    <patient>
      <reference value="Patient/ID880378"/>
    </patient>
    <code> 
      <coding>
        <system value="http://snomed.info/sct"/>
        <code value="185903001"/>
        <display value="Needs influenza immunization"/>
      </coding>
      <text value="Needs influenza immunization"/>
    </code>
   <clinicalStatus value="confirmed"/>
   <onsetDateTime value="2005-08-10"/>
   
  </Condition>
  
  </resource>
  <request>
    <method value="PUT"/>
    <url value="Condition/ID491-c"/>
  </request>
</entry>
  <entry>
  <resource>
    
    
  <Condition>
  <id value="ID492-c"/>
    <text>
     <status value="generated"/>
     <div xmlns="http://www.w3.org/1999/xhtml">Hypertrophy of tonsils</div>   
   </text>
    <patient>
      <reference value="Patient/ID880378"/>
    </patient>
    <code> 
      <coding>
        <system value="http://snomed.info/sct"/>
        <code value="46689006"/>
        <display value="Hypertrophy of tonsils"/>
      </coding>
      <text value="Hypertrophy of tonsils"/>
    </code>
   <clinicalStatus value="confirmed"/>
   <onsetDateTime value="2007-07-26"/>
   
  </Condition>
  
  </resource>
  <request>
    <method value="PUT"/>
    <url value="Condition/ID492-c"/>
  </request>
</entry>
  <entry>
  <resource>
    
    
  <Condition>
  <id value="ID493-c"/>
    <text>
     <status value="generated"/>
     <div xmlns="http://www.w3.org/1999/xhtml">Cough</div>   
   </text>
    <patient>
      <reference value="Patient/ID880378"/>
    </patient>
    <code> 
      <coding>
        <system value="http://snomed.info/sct"/>
        <code value="49727002"/>
        <display value="Cough"/>
      </coding>
      <text value="Cough"/>
    </code>
   <clinicalStatus value="confirmed"/>
   <onsetDateTime value="2009-07-23"/>
   
  </Condition>
  
  </resource>
  <request>
    <method value="PUT"/>
    <url value="Condition/ID493-c"/>
  </request>
</entry>
  <entry>
  <resource>
    
    
    <Immunization>
  <id value="ID7-i"/>
        <text>
            <status value="generated"/>
            <div xmlns="http://www.w3.org/1999/xhtml">HPV, unspecified formulation</div>
        </text>
        <patient>
            <reference value="Patient/ID880378"/>
        </patient>
        <date value="2010-09-09"/>
        <vaccineType>
            <coding>
        	<system value="http://www2a.cdc.gov/vaccines/IIS/IISStandards/vaccines.asp?rpt=cvx"/>
		 <code value="137"/>
       		 <display value="HPV, unspecified formulation"/>
		</coding>
        </vaccineType>
        <reported value="false"/>
        <wasNotGiven value="false"/>
    </Immunization>
  
  </resource>
  <request>
    <method value="PUT"/>
    <url value="Immunization/ID7-i"/>
  </request>
</entry>
  <entry>
  <resource>
    
    
    <Immunization>
  <id value="ID8-i"/>
        <text>
            <status value="generated"/>
            <div xmlns="http://www.w3.org/1999/xhtml">meningococcal oligosaccharide (groups A, C, Y and W-135) diphtheria toxoid conjugate vaccine (MCV4O)</div>
        </text>
        <patient>
            <reference value="Patient/ID880378"/>
        </patient>
        <date value="2009-03-01"/>
        <vaccineType>
            <coding>
        	<system value="http://www2a.cdc.gov/vaccines/IIS/IISStandards/vaccines.asp?rpt=cvx"/>
		 <code value="136"/>
       		 <display value="meningococcal oligosaccharide (groups A, C, Y and W-135) diphtheria toxoid conjugate vaccine (MCV4O)"/>
		</coding>
        </vaccineType>
        <reported value="false"/>
        <wasNotGiven value="true"/>
        <explanation>
            <reasonNotGiven>
            <coding>
                <system value="http://smarthealthit.org/terms/codes/ImmunizationRefusalReason#"/>
                <code value="notIndicatedPerGuidelines"/>
                <display value="Not indicated per guidelines"/>
		</coding>
            </reasonNotGiven>
        </explanation>
        
    
    </Immunization>
  
  </resource>
  <request>
    <method value="PUT"/>
    <url value="Immunization/ID8-i"/>
  </request>
</entry>
  <entry>
  <resource>
    
    
    <Immunization>
  <id value="ID9-i"/>
        <text>
            <status value="generated"/>
            <div xmlns="http://www.w3.org/1999/xhtml">hepatitis B vaccine, adult dosage</div>
        </text>
        <patient>
            <reference value="Patient/ID880378"/>
        </patient>
        <date value="2011-03-11"/>
        <vaccineType>
            <coding>
        	<system value="http://www2a.cdc.gov/vaccines/IIS/IISStandards/vaccines.asp?rpt=cvx"/>
		 <code value="43"/>
       		 <display value="hepatitis B vaccine, adult dosage"/>
		</coding>
        </vaccineType>
        <reported value="false"/>
        <wasNotGiven value="true"/>
    
    </Immunization>
  
  </resource>
  <request>
    <method value="PUT"/>
    <url value="Immunization/ID9-i"/>
  </request>
</entry>
<entry>
  <resource>
    
    
  <Observation>
  <id value="ID7-smokingstatus"/>
    <text>
      <status value="generated"/>
      <div xmlns="http://www.w3.org/1999/xhtml">Tobacco smoking status: Former smoker</div>
    </text>
    <code>
      <coding>
        <system value="http://loinc.org"/>
        <code value="72166-2"/>
        <display value="Tobacco smoking status"/>
      </coding>
    </code>
    <valueCodeableConcept>
      <coding>
        <system value="http://snomed.info/sct"/>
        <code value="8517006"/>
        <display value="Former smoker"/>
      </coding>
    </valueCodeableConcept>
    <status value="final"/>
    <reliability value="ok"/>
    <subject>
      <reference value="Patient/ID880378"/>
    </subject>
  </Observation>
  
  </resource>
  <request>
    <method value="PUT"/>
    <url value="Observation/ID7-smokingstatus"/>
  </request>
</entry>
<entry>
  <resource>
    
    
  <Observation>
  <id value="ID880378-gestage"/>
    <text>
      <status value="generated"/>
      <div xmlns="http://www.w3.org/1999/xhtml">1999-12-08: Gestational age at birth = 42.1 weeks</div>
    </text>
    <code>
      <coding>
        <system value="http://loinc.org"/>
        <code value="18185-9"/>
        <display value="Gestational age at birth"/>
      </coding>
    </code>
    <valueQuantity>
      <value value="42.1"/>
      <unit value="weeks"/>
      <system value="http://unitsofmeasure.org" />
      <code value="wk"/>
    </valueQuantity>
    
    <effectiveDateTime value="1999-12-08"/>
    <status value="final"/>
    <reliability value="ok"/>
    <subject>
      <reference value="Patient/ID880378"/>
    </subject>
  </Observation>
  
  </resource>
  <request>
    <method value="PUT"/>
    <url value="Observation/ID880378-gestage"/>
  </request>
</entry>
  <entry>
  <resource>
    
    
    <List>
  <id value="ID13-l"/>
        <text>
            <status value="generated"/>
            <div xmlns="http://www.w3.org/1999/xhtml">No known allergies</div>
        </text>
        <code>
            <coding>
               <system value="http://loinc.org/"/>
               <code value="52473-6"/>
               <display value="Allergy"/>
            </coding>
        </code>
        <subject>
          <reference value="Patient/ID880378"/>
        </subject>
        <date value="2000"/>
        <mode value="snapshot"/>
        <emptyReason>
            <coding>
                <system value="http://hl7.org/fhir/list-empty-reason"/>
                <code value="nilknown"/>
                <display value="Nil Known"/>
            </coding>
        </emptyReason>
    </List>
  
  </resource>
  <request>
    <method value="PUT"/>
    <url value="List/ID13-l"/>
  </request>
</entry>

</Bundle>
