<?xml version="1.0" encoding="UTF-8"?>
<Bundle xmlns="http://hl7.org/fhir">
    <type value="transaction"/>

  <entry>
  <resource>
    
    
  <Patient>
    <id value="ID629528"/>
    <text>
      <status value="generated"/>
      <div xmlns="http://www.w3.org/1999/xhtml">
        <p>Michelle Harris</p>
      </div>
    </text>
    <identifier>
      <use value="usual"/>
      <type>
        <coding>
          <system value="http://hl7.org/fhir/v2/0203"/>
          <code value="MR"/>
          <display value="Medical record number"/>
        </coding>
      </type>
      <system value="http://hospital.smarthealthit.org"/>
      <value value="629528"/>
    </identifier>
    <name>
      <use value="official"/>
      <family value="Harris"/>
      <given value="Michelle"/>
      <given value="Z."/>
    </name>
    <telecom>
      <system value="phone"/>
      <value value="800-959-4263"/>
      <use value="mobile"/>
    </telecom>
    <telecom>
      <system value="email"/>
      <value value="michelle.harris@example.com"/>
    </telecom>
    <gender value="female" />
    <birthDate value="1981-10-27" />
    <address>
      <use value="home"/>
      <line value="89 Elm Ave"/>
      <city value="Bixby"/>
      <state value="OK"/>
      <postalCode value="74008"/>
      <country value="USA"/>
    </address>
    <active value="true"/>
  </Patient>
  
  </resource>
  <request>
    <method value="PUT"/>
    <url value="Patient/ID629528"/>
  </request>
</entry>
  <entry>
  <resource>
    
    
    <Encounter>
  <id value="ID25"/>
      <text>
        <status value="generated"/>
        <div xmlns="http://www.w3.org/1999/xhtml">1997-07-29: ambulatory encounter</div>
      </text>
      <status value="finished"/>
      <class value="ambulatory"/>
      <patient>
        <reference value="Patient/ID629528"/>
      </patient>
      <period>
       <start value="1997-07-29"/>
       <end value="1997-07-29"/>
      </period>
    </Encounter>
  
  </resource>
  <request>
    <method value="PUT"/>
    <url value="Encounter/ID25"/>
  </request>
</entry>
  <entry>
  <resource>
    
    
    <Encounter>
  <id value="ID26"/>
      <text>
        <status value="generated"/>
        <div xmlns="http://www.w3.org/1999/xhtml">1997-07-31: ambulatory encounter</div>
      </text>
      <status value="finished"/>
      <class value="ambulatory"/>
      <patient>
        <reference value="Patient/ID629528"/>
      </patient>
      <period>
       <start value="1997-07-31"/>
       <end value="1997-07-31"/>
      </period>
    </Encounter>
  
  </resource>
  <request>
    <method value="PUT"/>
    <url value="Encounter/ID26"/>
  </request>
</entry>
  <entry>
  <resource>
    
    
    <Encounter>
  <id value="ID27"/>
      <text>
        <status value="generated"/>
        <div xmlns="http://www.w3.org/1999/xhtml">1997-10-24: ambulatory encounter</div>
      </text>
      <status value="finished"/>
      <class value="ambulatory"/>
      <patient>
        <reference value="Patient/ID629528"/>
      </patient>
      <period>
       <start value="1997-10-24"/>
       <end value="1997-10-24"/>
      </period>
    </Encounter>
  
  </resource>
  <request>
    <method value="PUT"/>
    <url value="Encounter/ID27"/>
  </request>
</entry>
  <entry>
  <resource>
    
    
    <Encounter>
  <id value="ID28"/>
      <text>
        <status value="generated"/>
        <div xmlns="http://www.w3.org/1999/xhtml">1998-03-27: ambulatory encounter</div>
      </text>
      <status value="finished"/>
      <class value="ambulatory"/>
      <patient>
        <reference value="Patient/ID629528"/>
      </patient>
      <period>
       <start value="1998-03-27"/>
       <end value="1998-03-27"/>
      </period>
    </Encounter>
  
  </resource>
  <request>
    <method value="PUT"/>
    <url value="Encounter/ID28"/>
  </request>
</entry>
  <entry>
  <resource>
    
    
    <Encounter>
  <id value="ID29"/>
      <text>
        <status value="generated"/>
        <div xmlns="http://www.w3.org/1999/xhtml">1998-08-04: ambulatory encounter</div>
      </text>
      <status value="finished"/>
      <class value="ambulatory"/>
      <patient>
        <reference value="Patient/ID629528"/>
      </patient>
      <period>
       <start value="1998-08-04"/>
       <end value="1998-08-04"/>
      </period>
    </Encounter>
  
  </resource>
  <request>
    <method value="PUT"/>
    <url value="Encounter/ID29"/>
  </request>
</entry>
  <entry>
  <resource>
    
    
    <Encounter>
  <id value="ID30"/>
      <text>
        <status value="generated"/>
        <div xmlns="http://www.w3.org/1999/xhtml">1998-08-05: ambulatory encounter</div>
      </text>
      <status value="finished"/>
      <class value="ambulatory"/>
      <patient>
        <reference value="Patient/ID629528"/>
      </patient>
      <period>
       <start value="1998-08-05"/>
       <end value="1998-08-05"/>
      </period>
    </Encounter>
  
  </resource>
  <request>
    <method value="PUT"/>
    <url value="Encounter/ID30"/>
  </request>
</entry>
  <entry>
  <resource>
    
    
    <Encounter>
  <id value="ID31"/>
      <text>
        <status value="generated"/>
        <div xmlns="http://www.w3.org/1999/xhtml">1998-08-06: ambulatory encounter</div>
      </text>
      <status value="finished"/>
      <class value="ambulatory"/>
      <patient>
        <reference value="Patient/ID629528"/>
      </patient>
      <period>
       <start value="1998-08-06"/>
       <end value="1998-08-06"/>
      </period>
    </Encounter>
  
  </resource>
  <request>
    <method value="PUT"/>
    <url value="Encounter/ID31"/>
  </request>
</entry>
  <entry>
  <resource>
    
    
    <Encounter>
  <id value="ID32"/>
      <text>
        <status value="generated"/>
        <div xmlns="http://www.w3.org/1999/xhtml">1998-12-02: ambulatory encounter</div>
      </text>
      <status value="finished"/>
      <class value="ambulatory"/>
      <patient>
        <reference value="Patient/ID629528"/>
      </patient>
      <period>
       <start value="1998-12-02"/>
       <end value="1998-12-02"/>
      </period>
    </Encounter>
  
  </resource>
  <request>
    <method value="PUT"/>
    <url value="Encounter/ID32"/>
  </request>
</entry>
  <entry>
  <resource>
    
    
    <Encounter>
  <id value="ID33"/>
      <text>
        <status value="generated"/>
        <div xmlns="http://www.w3.org/1999/xhtml">1998-12-08: ambulatory encounter</div>
      </text>
      <status value="finished"/>
      <class value="ambulatory"/>
      <patient>
        <reference value="Patient/ID629528"/>
      </patient>
      <period>
       <start value="1998-12-08"/>
       <end value="1998-12-08"/>
      </period>
    </Encounter>
  
  </resource>
  <request>
    <method value="PUT"/>
    <url value="Encounter/ID33"/>
  </request>
</entry>
  <entry>
  <resource>
    
    
    <Encounter>
  <id value="ID34"/>
      <text>
        <status value="generated"/>
        <div xmlns="http://www.w3.org/1999/xhtml">1998-12-09: ambulatory encounter</div>
      </text>
      <status value="finished"/>
      <class value="ambulatory"/>
      <patient>
        <reference value="Patient/ID629528"/>
      </patient>
      <period>
       <start value="1998-12-09"/>
       <end value="1998-12-09"/>
      </period>
    </Encounter>
  
  </resource>
  <request>
    <method value="PUT"/>
    <url value="Encounter/ID34"/>
  </request>
</entry>
  <entry>
  <resource>
    
    
    <Encounter>
  <id value="ID35"/>
      <text>
        <status value="generated"/>
        <div xmlns="http://www.w3.org/1999/xhtml">2000-01-11: ambulatory encounter</div>
      </text>
      <status value="finished"/>
      <class value="ambulatory"/>
      <patient>
        <reference value="Patient/ID629528"/>
      </patient>
      <period>
       <start value="2000-01-11"/>
       <end value="2000-01-11"/>
      </period>
    </Encounter>
  
  </resource>
  <request>
    <method value="PUT"/>
    <url value="Encounter/ID35"/>
  </request>
</entry>
  <entry>
  <resource>
    
    
    <Encounter>
  <id value="ID36"/>
      <text>
        <status value="generated"/>
        <div xmlns="http://www.w3.org/1999/xhtml">2001-01-08: ambulatory encounter</div>
      </text>
      <status value="finished"/>
      <class value="ambulatory"/>
      <patient>
        <reference value="Patient/ID629528"/>
      </patient>
      <period>
       <start value="2001-01-08"/>
       <end value="2001-01-08"/>
      </period>
    </Encounter>
  
  </resource>
  <request>
    <method value="PUT"/>
    <url value="Encounter/ID36"/>
  </request>
</entry>
  <entry>
  <resource>
    
    
    <Encounter>
  <id value="ID37"/>
      <text>
        <status value="generated"/>
        <div xmlns="http://www.w3.org/1999/xhtml">2004-05-10: ambulatory encounter</div>
      </text>
      <status value="finished"/>
      <class value="ambulatory"/>
      <patient>
        <reference value="Patient/ID629528"/>
      </patient>
      <period>
       <start value="2004-05-10"/>
       <end value="2004-05-10"/>
      </period>
    </Encounter>
  
  </resource>
  <request>
    <method value="PUT"/>
    <url value="Encounter/ID37"/>
  </request>
</entry>
  <entry>
  <resource>
    
    
    <Encounter>
  <id value="ID38"/>
      <text>
        <status value="generated"/>
        <div xmlns="http://www.w3.org/1999/xhtml">2004-05-11: ambulatory encounter</div>
      </text>
      <status value="finished"/>
      <class value="ambulatory"/>
      <patient>
        <reference value="Patient/ID629528"/>
      </patient>
      <period>
       <start value="2004-05-11"/>
       <end value="2004-05-11"/>
      </period>
    </Encounter>
  
  </resource>
  <request>
    <method value="PUT"/>
    <url value="Encounter/ID38"/>
  </request>
</entry>
  <entry>
  <resource>
    
    
    <Encounter>
  <id value="ID39"/>
      <text>
        <status value="generated"/>
        <div xmlns="http://www.w3.org/1999/xhtml">2004-09-03: ambulatory encounter</div>
      </text>
      <status value="finished"/>
      <class value="ambulatory"/>
      <patient>
        <reference value="Patient/ID629528"/>
      </patient>
      <period>
       <start value="2004-09-03"/>
       <end value="2004-09-03"/>
      </period>
    </Encounter>
  
  </resource>
  <request>
    <method value="PUT"/>
    <url value="Encounter/ID39"/>
  </request>
</entry>
  <entry>
  <resource>
    
    
  <Observation>
    <id value="ID25-bp"/>
    <text>
      <status value="generated"/>
      <div xmlns="http://www.w3.org/1999/xhtml">1997-07-29: Blood pressure 114/65 mmHg</div>
    </text>
    <code>
      <coding>
        <system value="http://loinc.org"/>
        <code value="55284-4"/>
        <display value="Blood pressure systolic and diastolic"/>
      </coding>
    </code>
    <effectiveDateTime value="1997-07-29"/>
    <status value="final"/>
    <reliability value="ok"/>
    <subject>
      <reference value="Patient/ID629528"/>
    </subject>
    <related>
      <type value="has-component"/>
      <target>
        <reference value="Observation/ID25-systolic"/>
      </target>
    </related>
    <related>
      <type value="has-component"/>
      <target>
        <reference value="Observation/ID25-diastolic"/>
      </target>
    </related>
    <encounter>
      <reference value="Encounter/ID25"/>
    </encounter>
    

  </Observation>
  
  </resource>
  <request>
    <method value="PUT"/>
    <url value="Observation/ID25-bp"/>
  </request>
</entry>
<entry>
  <resource>
    
    
  <Observation>
  <id value="ID25-systolic"/>
    <text>
      <status value="generated"/>
      <div xmlns="http://www.w3.org/1999/xhtml">1997-07-29: Systolic blood pressure = 114 mm[Hg]</div>
    </text>
    <code>
      <coding>
        <system value="http://loinc.org"/>
        <code value="8480-6"/>
        <display value="Systolic blood pressure"/>
      </coding>
    </code>
    <valueQuantity>
      <value value="114.0"/>
      <unit value="mm[Hg]"/>
      <system value="http://unitsofmeasure.org" />
      <code value="mm[Hg]"/>
    </valueQuantity>
    
    <effectiveDateTime value="1997-07-29"/>
    <status value="final"/>
    <reliability value="ok"/>
    <subject>
      <reference value="Patient/ID629528"/>
    </subject>
  </Observation>
  
  </resource>
  <request>
    <method value="PUT"/>
    <url value="Observation/ID25-systolic"/>
  </request>
</entry>
<entry>
  <resource>
    
    
  <Observation>
  <id value="ID25-diastolic"/>
    <text>
      <status value="generated"/>
      <div xmlns="http://www.w3.org/1999/xhtml">1997-07-29: Diastolic blood pressure = 65 mm[Hg]</div>
    </text>
    <code>
      <coding>
        <system value="http://loinc.org"/>
        <code value="8462-4"/>
        <display value="Diastolic blood pressure"/>
      </coding>
    </code>
    <valueQuantity>
      <value value="65.0"/>
      <unit value="mm[Hg]"/>
      <system value="http://unitsofmeasure.org" />
      <code value="mm[Hg]"/>
    </valueQuantity>
    
    <effectiveDateTime value="1997-07-29"/>
    <status value="final"/>
    <reliability value="ok"/>
    <subject>
      <reference value="Patient/ID629528"/>
    </subject>
  </Observation>
  
  </resource>
  <request>
    <method value="PUT"/>
    <url value="Observation/ID25-diastolic"/>
  </request>
</entry>
  <entry>
  <resource>
    
    
  <Observation>
    <id value="ID26-bp"/>
    <text>
      <status value="generated"/>
      <div xmlns="http://www.w3.org/1999/xhtml">1997-07-31: Blood pressure 111/68 mmHg</div>
    </text>
    <code>
      <coding>
        <system value="http://loinc.org"/>
        <code value="55284-4"/>
        <display value="Blood pressure systolic and diastolic"/>
      </coding>
    </code>
    <effectiveDateTime value="1997-07-31"/>
    <status value="final"/>
    <reliability value="ok"/>
    <subject>
      <reference value="Patient/ID629528"/>
    </subject>
    <related>
      <type value="has-component"/>
      <target>
        <reference value="Observation/ID26-systolic"/>
      </target>
    </related>
    <related>
      <type value="has-component"/>
      <target>
        <reference value="Observation/ID26-diastolic"/>
      </target>
    </related>
    <encounter>
      <reference value="Encounter/ID26"/>
    </encounter>
    

  </Observation>
  
  </resource>
  <request>
    <method value="PUT"/>
    <url value="Observation/ID26-bp"/>
  </request>
</entry>
<entry>
  <resource>
    
    
  <Observation>
  <id value="ID26-systolic"/>
    <text>
      <status value="generated"/>
      <div xmlns="http://www.w3.org/1999/xhtml">1997-07-31: Systolic blood pressure = 111 mm[Hg]</div>
    </text>
    <code>
      <coding>
        <system value="http://loinc.org"/>
        <code value="8480-6"/>
        <display value="Systolic blood pressure"/>
      </coding>
    </code>
    <valueQuantity>
      <value value="111.0"/>
      <unit value="mm[Hg]"/>
      <system value="http://unitsofmeasure.org" />
      <code value="mm[Hg]"/>
    </valueQuantity>
    
    <effectiveDateTime value="1997-07-31"/>
    <status value="final"/>
    <reliability value="ok"/>
    <subject>
      <reference value="Patient/ID629528"/>
    </subject>
  </Observation>
  
  </resource>
  <request>
    <method value="PUT"/>
    <url value="Observation/ID26-systolic"/>
  </request>
</entry>
<entry>
  <resource>
    
    
  <Observation>
  <id value="ID26-diastolic"/>
    <text>
      <status value="generated"/>
      <div xmlns="http://www.w3.org/1999/xhtml">1997-07-31: Diastolic blood pressure = 68 mm[Hg]</div>
    </text>
    <code>
      <coding>
        <system value="http://loinc.org"/>
        <code value="8462-4"/>
        <display value="Diastolic blood pressure"/>
      </coding>
    </code>
    <valueQuantity>
      <value value="68.0"/>
      <unit value="mm[Hg]"/>
      <system value="http://unitsofmeasure.org" />
      <code value="mm[Hg]"/>
    </valueQuantity>
    
    <effectiveDateTime value="1997-07-31"/>
    <status value="final"/>
    <reliability value="ok"/>
    <subject>
      <reference value="Patient/ID629528"/>
    </subject>
  </Observation>
  
  </resource>
  <request>
    <method value="PUT"/>
    <url value="Observation/ID26-diastolic"/>
  </request>
</entry>
  <entry>
  <resource>
    
    
  <Observation>
    <id value="ID27-bp"/>
    <text>
      <status value="generated"/>
      <div xmlns="http://www.w3.org/1999/xhtml">1997-10-24: Blood pressure 112/69 mmHg</div>
    </text>
    <code>
      <coding>
        <system value="http://loinc.org"/>
        <code value="55284-4"/>
        <display value="Blood pressure systolic and diastolic"/>
      </coding>
    </code>
    <effectiveDateTime value="1997-10-24"/>
    <status value="final"/>
    <reliability value="ok"/>
    <subject>
      <reference value="Patient/ID629528"/>
    </subject>
    <related>
      <type value="has-component"/>
      <target>
        <reference value="Observation/ID27-systolic"/>
      </target>
    </related>
    <related>
      <type value="has-component"/>
      <target>
        <reference value="Observation/ID27-diastolic"/>
      </target>
    </related>
    <encounter>
      <reference value="Encounter/ID27"/>
    </encounter>
    

  </Observation>
  
  </resource>
  <request>
    <method value="PUT"/>
    <url value="Observation/ID27-bp"/>
  </request>
</entry>
<entry>
  <resource>
    
    
  <Observation>
  <id value="ID27-systolic"/>
    <text>
      <status value="generated"/>
      <div xmlns="http://www.w3.org/1999/xhtml">1997-10-24: Systolic blood pressure = 112 mm[Hg]</div>
    </text>
    <code>
      <coding>
        <system value="http://loinc.org"/>
        <code value="8480-6"/>
        <display value="Systolic blood pressure"/>
      </coding>
    </code>
    <valueQuantity>
      <value value="112.0"/>
      <unit value="mm[Hg]"/>
      <system value="http://unitsofmeasure.org" />
      <code value="mm[Hg]"/>
    </valueQuantity>
    
    <effectiveDateTime value="1997-10-24"/>
    <status value="final"/>
    <reliability value="ok"/>
    <subject>
      <reference value="Patient/ID629528"/>
    </subject>
  </Observation>
  
  </resource>
  <request>
    <method value="PUT"/>
    <url value="Observation/ID27-systolic"/>
  </request>
</entry>
<entry>
  <resource>
    
    
  <Observation>
  <id value="ID27-diastolic"/>
    <text>
      <status value="generated"/>
      <div xmlns="http://www.w3.org/1999/xhtml">1997-10-24: Diastolic blood pressure = 69 mm[Hg]</div>
    </text>
    <code>
      <coding>
        <system value="http://loinc.org"/>
        <code value="8462-4"/>
        <display value="Diastolic blood pressure"/>
      </coding>
    </code>
    <valueQuantity>
      <value value="69.0"/>
      <unit value="mm[Hg]"/>
      <system value="http://unitsofmeasure.org" />
      <code value="mm[Hg]"/>
    </valueQuantity>
    
    <effectiveDateTime value="1997-10-24"/>
    <status value="final"/>
    <reliability value="ok"/>
    <subject>
      <reference value="Patient/ID629528"/>
    </subject>
  </Observation>
  
  </resource>
  <request>
    <method value="PUT"/>
    <url value="Observation/ID27-diastolic"/>
  </request>
</entry>
  <entry>
  <resource>
    
    
  <Observation>
    <id value="ID28-bp"/>
    <text>
      <status value="generated"/>
      <div xmlns="http://www.w3.org/1999/xhtml">1998-03-27: Blood pressure 110/68 mmHg</div>
    </text>
    <code>
      <coding>
        <system value="http://loinc.org"/>
        <code value="55284-4"/>
        <display value="Blood pressure systolic and diastolic"/>
      </coding>
    </code>
    <effectiveDateTime value="1998-03-27"/>
    <status value="final"/>
    <reliability value="ok"/>
    <subject>
      <reference value="Patient/ID629528"/>
    </subject>
    <related>
      <type value="has-component"/>
      <target>
        <reference value="Observation/ID28-systolic"/>
      </target>
    </related>
    <related>
      <type value="has-component"/>
      <target>
        <reference value="Observation/ID28-diastolic"/>
      </target>
    </related>
    <encounter>
      <reference value="Encounter/ID28"/>
    </encounter>
    

  </Observation>
  
  </resource>
  <request>
    <method value="PUT"/>
    <url value="Observation/ID28-bp"/>
  </request>
</entry>
<entry>
  <resource>
    
    
  <Observation>
  <id value="ID28-systolic"/>
    <text>
      <status value="generated"/>
      <div xmlns="http://www.w3.org/1999/xhtml">1998-03-27: Systolic blood pressure = 110 mm[Hg]</div>
    </text>
    <code>
      <coding>
        <system value="http://loinc.org"/>
        <code value="8480-6"/>
        <display value="Systolic blood pressure"/>
      </coding>
    </code>
    <valueQuantity>
      <value value="110.0"/>
      <unit value="mm[Hg]"/>
      <system value="http://unitsofmeasure.org" />
      <code value="mm[Hg]"/>
    </valueQuantity>
    
    <effectiveDateTime value="1998-03-27"/>
    <status value="final"/>
    <reliability value="ok"/>
    <subject>
      <reference value="Patient/ID629528"/>
    </subject>
  </Observation>
  
  </resource>
  <request>
    <method value="PUT"/>
    <url value="Observation/ID28-systolic"/>
  </request>
</entry>
<entry>
  <resource>
    
    
  <Observation>
  <id value="ID28-diastolic"/>
    <text>
      <status value="generated"/>
      <div xmlns="http://www.w3.org/1999/xhtml">1998-03-27: Diastolic blood pressure = 68 mm[Hg]</div>
    </text>
    <code>
      <coding>
        <system value="http://loinc.org"/>
        <code value="8462-4"/>
        <display value="Diastolic blood pressure"/>
      </coding>
    </code>
    <valueQuantity>
      <value value="68.0"/>
      <unit value="mm[Hg]"/>
      <system value="http://unitsofmeasure.org" />
      <code value="mm[Hg]"/>
    </valueQuantity>
    
    <effectiveDateTime value="1998-03-27"/>
    <status value="final"/>
    <reliability value="ok"/>
    <subject>
      <reference value="Patient/ID629528"/>
    </subject>
  </Observation>
  
  </resource>
  <request>
    <method value="PUT"/>
    <url value="Observation/ID28-diastolic"/>
  </request>
</entry>
  <entry>
  <resource>
    
    
  <Observation>
    <id value="ID29-bp"/>
    <text>
      <status value="generated"/>
      <div xmlns="http://www.w3.org/1999/xhtml">1998-08-04: Blood pressure 109/67 mmHg</div>
    </text>
    <code>
      <coding>
        <system value="http://loinc.org"/>
        <code value="55284-4"/>
        <display value="Blood pressure systolic and diastolic"/>
      </coding>
    </code>
    <effectiveDateTime value="1998-08-04"/>
    <status value="final"/>
    <reliability value="ok"/>
    <subject>
      <reference value="Patient/ID629528"/>
    </subject>
    <related>
      <type value="has-component"/>
      <target>
        <reference value="Observation/ID29-systolic"/>
      </target>
    </related>
    <related>
      <type value="has-component"/>
      <target>
        <reference value="Observation/ID29-diastolic"/>
      </target>
    </related>
    <encounter>
      <reference value="Encounter/ID29"/>
    </encounter>
    

  </Observation>
  
  </resource>
  <request>
    <method value="PUT"/>
    <url value="Observation/ID29-bp"/>
  </request>
</entry>
<entry>
  <resource>
    
    
  <Observation>
  <id value="ID29-systolic"/>
    <text>
      <status value="generated"/>
      <div xmlns="http://www.w3.org/1999/xhtml">1998-08-04: Systolic blood pressure = 109 mm[Hg]</div>
    </text>
    <code>
      <coding>
        <system value="http://loinc.org"/>
        <code value="8480-6"/>
        <display value="Systolic blood pressure"/>
      </coding>
    </code>
    <valueQuantity>
      <value value="109.0"/>
      <unit value="mm[Hg]"/>
      <system value="http://unitsofmeasure.org" />
      <code value="mm[Hg]"/>
    </valueQuantity>
    
    <effectiveDateTime value="1998-08-04"/>
    <status value="final"/>
    <reliability value="ok"/>
    <subject>
      <reference value="Patient/ID629528"/>
    </subject>
  </Observation>
  
  </resource>
  <request>
    <method value="PUT"/>
    <url value="Observation/ID29-systolic"/>
  </request>
</entry>
<entry>
  <resource>
    
    
  <Observation>
  <id value="ID29-diastolic"/>
    <text>
      <status value="generated"/>
      <div xmlns="http://www.w3.org/1999/xhtml">1998-08-04: Diastolic blood pressure = 67 mm[Hg]</div>
    </text>
    <code>
      <coding>
        <system value="http://loinc.org"/>
        <code value="8462-4"/>
        <display value="Diastolic blood pressure"/>
      </coding>
    </code>
    <valueQuantity>
      <value value="67.0"/>
      <unit value="mm[Hg]"/>
      <system value="http://unitsofmeasure.org" />
      <code value="mm[Hg]"/>
    </valueQuantity>
    
    <effectiveDateTime value="1998-08-04"/>
    <status value="final"/>
    <reliability value="ok"/>
    <subject>
      <reference value="Patient/ID629528"/>
    </subject>
  </Observation>
  
  </resource>
  <request>
    <method value="PUT"/>
    <url value="Observation/ID29-diastolic"/>
  </request>
</entry>
  <entry>
  <resource>
    
    
  <Observation>
    <id value="ID30-bp"/>
    <text>
      <status value="generated"/>
      <div xmlns="http://www.w3.org/1999/xhtml">1998-08-05: Blood pressure 115/71 mmHg</div>
    </text>
    <code>
      <coding>
        <system value="http://loinc.org"/>
        <code value="55284-4"/>
        <display value="Blood pressure systolic and diastolic"/>
      </coding>
    </code>
    <effectiveDateTime value="1998-08-05"/>
    <status value="final"/>
    <reliability value="ok"/>
    <subject>
      <reference value="Patient/ID629528"/>
    </subject>
    <related>
      <type value="has-component"/>
      <target>
        <reference value="Observation/ID30-systolic"/>
      </target>
    </related>
    <related>
      <type value="has-component"/>
      <target>
        <reference value="Observation/ID30-diastolic"/>
      </target>
    </related>
    <encounter>
      <reference value="Encounter/ID30"/>
    </encounter>
    

  </Observation>
  
  </resource>
  <request>
    <method value="PUT"/>
    <url value="Observation/ID30-bp"/>
  </request>
</entry>
<entry>
  <resource>
    
    
  <Observation>
  <id value="ID30-systolic"/>
    <text>
      <status value="generated"/>
      <div xmlns="http://www.w3.org/1999/xhtml">1998-08-05: Systolic blood pressure = 115 mm[Hg]</div>
    </text>
    <code>
      <coding>
        <system value="http://loinc.org"/>
        <code value="8480-6"/>
        <display value="Systolic blood pressure"/>
      </coding>
    </code>
    <valueQuantity>
      <value value="115.0"/>
      <unit value="mm[Hg]"/>
      <system value="http://unitsofmeasure.org" />
      <code value="mm[Hg]"/>
    </valueQuantity>
    
    <effectiveDateTime value="1998-08-05"/>
    <status value="final"/>
    <reliability value="ok"/>
    <subject>
      <reference value="Patient/ID629528"/>
    </subject>
  </Observation>
  
  </resource>
  <request>
    <method value="PUT"/>
    <url value="Observation/ID30-systolic"/>
  </request>
</entry>
<entry>
  <resource>
    
    
  <Observation>
  <id value="ID30-diastolic"/>
    <text>
      <status value="generated"/>
      <div xmlns="http://www.w3.org/1999/xhtml">1998-08-05: Diastolic blood pressure = 71 mm[Hg]</div>
    </text>
    <code>
      <coding>
        <system value="http://loinc.org"/>
        <code value="8462-4"/>
        <display value="Diastolic blood pressure"/>
      </coding>
    </code>
    <valueQuantity>
      <value value="71.0"/>
      <unit value="mm[Hg]"/>
      <system value="http://unitsofmeasure.org" />
      <code value="mm[Hg]"/>
    </valueQuantity>
    
    <effectiveDateTime value="1998-08-05"/>
    <status value="final"/>
    <reliability value="ok"/>
    <subject>
      <reference value="Patient/ID629528"/>
    </subject>
  </Observation>
  
  </resource>
  <request>
    <method value="PUT"/>
    <url value="Observation/ID30-diastolic"/>
  </request>
</entry>
  <entry>
  <resource>
    
    
  <Observation>
    <id value="ID31-bp"/>
    <text>
      <status value="generated"/>
      <div xmlns="http://www.w3.org/1999/xhtml">1998-08-06: Blood pressure 111/69 mmHg</div>
    </text>
    <code>
      <coding>
        <system value="http://loinc.org"/>
        <code value="55284-4"/>
        <display value="Blood pressure systolic and diastolic"/>
      </coding>
    </code>
    <effectiveDateTime value="1998-08-06"/>
    <status value="final"/>
    <reliability value="ok"/>
    <subject>
      <reference value="Patient/ID629528"/>
    </subject>
    <related>
      <type value="has-component"/>
      <target>
        <reference value="Observation/ID31-systolic"/>
      </target>
    </related>
    <related>
      <type value="has-component"/>
      <target>
        <reference value="Observation/ID31-diastolic"/>
      </target>
    </related>
    <encounter>
      <reference value="Encounter/ID31"/>
    </encounter>
    

  </Observation>
  
  </resource>
  <request>
    <method value="PUT"/>
    <url value="Observation/ID31-bp"/>
  </request>
</entry>
<entry>
  <resource>
    
    
  <Observation>
  <id value="ID31-systolic"/>
    <text>
      <status value="generated"/>
      <div xmlns="http://www.w3.org/1999/xhtml">1998-08-06: Systolic blood pressure = 111 mm[Hg]</div>
    </text>
    <code>
      <coding>
        <system value="http://loinc.org"/>
        <code value="8480-6"/>
        <display value="Systolic blood pressure"/>
      </coding>
    </code>
    <valueQuantity>
      <value value="111.0"/>
      <unit value="mm[Hg]"/>
      <system value="http://unitsofmeasure.org" />
      <code value="mm[Hg]"/>
    </valueQuantity>
    
    <effectiveDateTime value="1998-08-06"/>
    <status value="final"/>
    <reliability value="ok"/>
    <subject>
      <reference value="Patient/ID629528"/>
    </subject>
  </Observation>
  
  </resource>
  <request>
    <method value="PUT"/>
    <url value="Observation/ID31-systolic"/>
  </request>
</entry>
<entry>
  <resource>
    
    
  <Observation>
  <id value="ID31-diastolic"/>
    <text>
      <status value="generated"/>
      <div xmlns="http://www.w3.org/1999/xhtml">1998-08-06: Diastolic blood pressure = 69 mm[Hg]</div>
    </text>
    <code>
      <coding>
        <system value="http://loinc.org"/>
        <code value="8462-4"/>
        <display value="Diastolic blood pressure"/>
      </coding>
    </code>
    <valueQuantity>
      <value value="69.0"/>
      <unit value="mm[Hg]"/>
      <system value="http://unitsofmeasure.org" />
      <code value="mm[Hg]"/>
    </valueQuantity>
    
    <effectiveDateTime value="1998-08-06"/>
    <status value="final"/>
    <reliability value="ok"/>
    <subject>
      <reference value="Patient/ID629528"/>
    </subject>
  </Observation>
  
  </resource>
  <request>
    <method value="PUT"/>
    <url value="Observation/ID31-diastolic"/>
  </request>
</entry>
  <entry>
  <resource>
    
    
  <Observation>
    <id value="ID32-bp"/>
    <text>
      <status value="generated"/>
      <div xmlns="http://www.w3.org/1999/xhtml">1998-12-02: Blood pressure 114/71 mmHg</div>
    </text>
    <code>
      <coding>
        <system value="http://loinc.org"/>
        <code value="55284-4"/>
        <display value="Blood pressure systolic and diastolic"/>
      </coding>
    </code>
    <effectiveDateTime value="1998-12-02"/>
    <status value="final"/>
    <reliability value="ok"/>
    <subject>
      <reference value="Patient/ID629528"/>
    </subject>
    <related>
      <type value="has-component"/>
      <target>
        <reference value="Observation/ID32-systolic"/>
      </target>
    </related>
    <related>
      <type value="has-component"/>
      <target>
        <reference value="Observation/ID32-diastolic"/>
      </target>
    </related>
    <encounter>
      <reference value="Encounter/ID32"/>
    </encounter>
    

  </Observation>
  
  </resource>
  <request>
    <method value="PUT"/>
    <url value="Observation/ID32-bp"/>
  </request>
</entry>
<entry>
  <resource>
    
    
  <Observation>
  <id value="ID32-systolic"/>
    <text>
      <status value="generated"/>
      <div xmlns="http://www.w3.org/1999/xhtml">1998-12-02: Systolic blood pressure = 114 mm[Hg]</div>
    </text>
    <code>
      <coding>
        <system value="http://loinc.org"/>
        <code value="8480-6"/>
        <display value="Systolic blood pressure"/>
      </coding>
    </code>
    <valueQuantity>
      <value value="114.0"/>
      <unit value="mm[Hg]"/>
      <system value="http://unitsofmeasure.org" />
      <code value="mm[Hg]"/>
    </valueQuantity>
    
    <effectiveDateTime value="1998-12-02"/>
    <status value="final"/>
    <reliability value="ok"/>
    <subject>
      <reference value="Patient/ID629528"/>
    </subject>
  </Observation>
  
  </resource>
  <request>
    <method value="PUT"/>
    <url value="Observation/ID32-systolic"/>
  </request>
</entry>
<entry>
  <resource>
    
    
  <Observation>
  <id value="ID32-diastolic"/>
    <text>
      <status value="generated"/>
      <div xmlns="http://www.w3.org/1999/xhtml">1998-12-02: Diastolic blood pressure = 71 mm[Hg]</div>
    </text>
    <code>
      <coding>
        <system value="http://loinc.org"/>
        <code value="8462-4"/>
        <display value="Diastolic blood pressure"/>
      </coding>
    </code>
    <valueQuantity>
      <value value="71.0"/>
      <unit value="mm[Hg]"/>
      <system value="http://unitsofmeasure.org" />
      <code value="mm[Hg]"/>
    </valueQuantity>
    
    <effectiveDateTime value="1998-12-02"/>
    <status value="final"/>
    <reliability value="ok"/>
    <subject>
      <reference value="Patient/ID629528"/>
    </subject>
  </Observation>
  
  </resource>
  <request>
    <method value="PUT"/>
    <url value="Observation/ID32-diastolic"/>
  </request>
</entry>
  <entry>
  <resource>
    
    
  <Observation>
    <id value="ID33-bp"/>
    <text>
      <status value="generated"/>
      <div xmlns="http://www.w3.org/1999/xhtml">1998-12-08: Blood pressure 119/74 mmHg</div>
    </text>
    <code>
      <coding>
        <system value="http://loinc.org"/>
        <code value="55284-4"/>
        <display value="Blood pressure systolic and diastolic"/>
      </coding>
    </code>
    <effectiveDateTime value="1998-12-08"/>
    <status value="final"/>
    <reliability value="ok"/>
    <subject>
      <reference value="Patient/ID629528"/>
    </subject>
    <related>
      <type value="has-component"/>
      <target>
        <reference value="Observation/ID33-systolic"/>
      </target>
    </related>
    <related>
      <type value="has-component"/>
      <target>
        <reference value="Observation/ID33-diastolic"/>
      </target>
    </related>
    <encounter>
      <reference value="Encounter/ID33"/>
    </encounter>
    

  </Observation>
  
  </resource>
  <request>
    <method value="PUT"/>
    <url value="Observation/ID33-bp"/>
  </request>
</entry>
<entry>
  <resource>
    
    
  <Observation>
  <id value="ID33-systolic"/>
    <text>
      <status value="generated"/>
      <div xmlns="http://www.w3.org/1999/xhtml">1998-12-08: Systolic blood pressure = 119 mm[Hg]</div>
    </text>
    <code>
      <coding>
        <system value="http://loinc.org"/>
        <code value="8480-6"/>
        <display value="Systolic blood pressure"/>
      </coding>
    </code>
    <valueQuantity>
      <value value="119.0"/>
      <unit value="mm[Hg]"/>
      <system value="http://unitsofmeasure.org" />
      <code value="mm[Hg]"/>
    </valueQuantity>
    
    <effectiveDateTime value="1998-12-08"/>
    <status value="final"/>
    <reliability value="ok"/>
    <subject>
      <reference value="Patient/ID629528"/>
    </subject>
  </Observation>
  
  </resource>
  <request>
    <method value="PUT"/>
    <url value="Observation/ID33-systolic"/>
  </request>
</entry>
<entry>
  <resource>
    
    
  <Observation>
  <id value="ID33-diastolic"/>
    <text>
      <status value="generated"/>
      <div xmlns="http://www.w3.org/1999/xhtml">1998-12-08: Diastolic blood pressure = 74 mm[Hg]</div>
    </text>
    <code>
      <coding>
        <system value="http://loinc.org"/>
        <code value="8462-4"/>
        <display value="Diastolic blood pressure"/>
      </coding>
    </code>
    <valueQuantity>
      <value value="74.0"/>
      <unit value="mm[Hg]"/>
      <system value="http://unitsofmeasure.org" />
      <code value="mm[Hg]"/>
    </valueQuantity>
    
    <effectiveDateTime value="1998-12-08"/>
    <status value="final"/>
    <reliability value="ok"/>
    <subject>
      <reference value="Patient/ID629528"/>
    </subject>
  </Observation>
  
  </resource>
  <request>
    <method value="PUT"/>
    <url value="Observation/ID33-diastolic"/>
  </request>
</entry>
  <entry>
  <resource>
    
    
  <Observation>
    <id value="ID34-bp"/>
    <text>
      <status value="generated"/>
      <div xmlns="http://www.w3.org/1999/xhtml">1998-12-09: Blood pressure 120/75 mmHg</div>
    </text>
    <code>
      <coding>
        <system value="http://loinc.org"/>
        <code value="55284-4"/>
        <display value="Blood pressure systolic and diastolic"/>
      </coding>
    </code>
    <effectiveDateTime value="1998-12-09"/>
    <status value="final"/>
    <reliability value="ok"/>
    <subject>
      <reference value="Patient/ID629528"/>
    </subject>
    <related>
      <type value="has-component"/>
      <target>
        <reference value="Observation/ID34-systolic"/>
      </target>
    </related>
    <related>
      <type value="has-component"/>
      <target>
        <reference value="Observation/ID34-diastolic"/>
      </target>
    </related>
    <encounter>
      <reference value="Encounter/ID34"/>
    </encounter>
    

  </Observation>
  
  </resource>
  <request>
    <method value="PUT"/>
    <url value="Observation/ID34-bp"/>
  </request>
</entry>
<entry>
  <resource>
    
    
  <Observation>
  <id value="ID34-systolic"/>
    <text>
      <status value="generated"/>
      <div xmlns="http://www.w3.org/1999/xhtml">1998-12-09: Systolic blood pressure = 120 mm[Hg]</div>
    </text>
    <code>
      <coding>
        <system value="http://loinc.org"/>
        <code value="8480-6"/>
        <display value="Systolic blood pressure"/>
      </coding>
    </code>
    <valueQuantity>
      <value value="120.0"/>
      <unit value="mm[Hg]"/>
      <system value="http://unitsofmeasure.org" />
      <code value="mm[Hg]"/>
    </valueQuantity>
    
    <effectiveDateTime value="1998-12-09"/>
    <status value="final"/>
    <reliability value="ok"/>
    <subject>
      <reference value="Patient/ID629528"/>
    </subject>
  </Observation>
  
  </resource>
  <request>
    <method value="PUT"/>
    <url value="Observation/ID34-systolic"/>
  </request>
</entry>
<entry>
  <resource>
    
    
  <Observation>
  <id value="ID34-diastolic"/>
    <text>
      <status value="generated"/>
      <div xmlns="http://www.w3.org/1999/xhtml">1998-12-09: Diastolic blood pressure = 75 mm[Hg]</div>
    </text>
    <code>
      <coding>
        <system value="http://loinc.org"/>
        <code value="8462-4"/>
        <display value="Diastolic blood pressure"/>
      </coding>
    </code>
    <valueQuantity>
      <value value="75.0"/>
      <unit value="mm[Hg]"/>
      <system value="http://unitsofmeasure.org" />
      <code value="mm[Hg]"/>
    </valueQuantity>
    
    <effectiveDateTime value="1998-12-09"/>
    <status value="final"/>
    <reliability value="ok"/>
    <subject>
      <reference value="Patient/ID629528"/>
    </subject>
  </Observation>
  
  </resource>
  <request>
    <method value="PUT"/>
    <url value="Observation/ID34-diastolic"/>
  </request>
</entry>
  <entry>
  <resource>
    
    
  <Observation>
    <id value="ID35-bp"/>
    <text>
      <status value="generated"/>
      <div xmlns="http://www.w3.org/1999/xhtml">2000-01-11: Blood pressure 113/70 mmHg</div>
    </text>
    <code>
      <coding>
        <system value="http://loinc.org"/>
        <code value="55284-4"/>
        <display value="Blood pressure systolic and diastolic"/>
      </coding>
    </code>
    <effectiveDateTime value="2000-01-11"/>
    <status value="final"/>
    <reliability value="ok"/>
    <subject>
      <reference value="Patient/ID629528"/>
    </subject>
    <related>
      <type value="has-component"/>
      <target>
        <reference value="Observation/ID35-systolic"/>
      </target>
    </related>
    <related>
      <type value="has-component"/>
      <target>
        <reference value="Observation/ID35-diastolic"/>
      </target>
    </related>
    <encounter>
      <reference value="Encounter/ID35"/>
    </encounter>
    

  </Observation>
  
  </resource>
  <request>
    <method value="PUT"/>
    <url value="Observation/ID35-bp"/>
  </request>
</entry>
<entry>
  <resource>
    
    
  <Observation>
  <id value="ID35-systolic"/>
    <text>
      <status value="generated"/>
      <div xmlns="http://www.w3.org/1999/xhtml">2000-01-11: Systolic blood pressure = 113 mm[Hg]</div>
    </text>
    <code>
      <coding>
        <system value="http://loinc.org"/>
        <code value="8480-6"/>
        <display value="Systolic blood pressure"/>
      </coding>
    </code>
    <valueQuantity>
      <value value="113.0"/>
      <unit value="mm[Hg]"/>
      <system value="http://unitsofmeasure.org" />
      <code value="mm[Hg]"/>
    </valueQuantity>
    
    <effectiveDateTime value="2000-01-11"/>
    <status value="final"/>
    <reliability value="ok"/>
    <subject>
      <reference value="Patient/ID629528"/>
    </subject>
  </Observation>
  
  </resource>
  <request>
    <method value="PUT"/>
    <url value="Observation/ID35-systolic"/>
  </request>
</entry>
<entry>
  <resource>
    
    
  <Observation>
  <id value="ID35-diastolic"/>
    <text>
      <status value="generated"/>
      <div xmlns="http://www.w3.org/1999/xhtml">2000-01-11: Diastolic blood pressure = 70 mm[Hg]</div>
    </text>
    <code>
      <coding>
        <system value="http://loinc.org"/>
        <code value="8462-4"/>
        <display value="Diastolic blood pressure"/>
      </coding>
    </code>
    <valueQuantity>
      <value value="70.0"/>
      <unit value="mm[Hg]"/>
      <system value="http://unitsofmeasure.org" />
      <code value="mm[Hg]"/>
    </valueQuantity>
    
    <effectiveDateTime value="2000-01-11"/>
    <status value="final"/>
    <reliability value="ok"/>
    <subject>
      <reference value="Patient/ID629528"/>
    </subject>
  </Observation>
  
  </resource>
  <request>
    <method value="PUT"/>
    <url value="Observation/ID35-diastolic"/>
  </request>
</entry>
  <entry>
  <resource>
    
    
  <Observation>
    <id value="ID36-bp"/>
    <text>
      <status value="generated"/>
      <div xmlns="http://www.w3.org/1999/xhtml">2001-01-08: Blood pressure 116/73 mmHg</div>
    </text>
    <code>
      <coding>
        <system value="http://loinc.org"/>
        <code value="55284-4"/>
        <display value="Blood pressure systolic and diastolic"/>
      </coding>
    </code>
    <effectiveDateTime value="2001-01-08"/>
    <status value="final"/>
    <reliability value="ok"/>
    <subject>
      <reference value="Patient/ID629528"/>
    </subject>
    <related>
      <type value="has-component"/>
      <target>
        <reference value="Observation/ID36-systolic"/>
      </target>
    </related>
    <related>
      <type value="has-component"/>
      <target>
        <reference value="Observation/ID36-diastolic"/>
      </target>
    </related>
    <encounter>
      <reference value="Encounter/ID36"/>
    </encounter>
    

  </Observation>
  
  </resource>
  <request>
    <method value="PUT"/>
    <url value="Observation/ID36-bp"/>
  </request>
</entry>
<entry>
  <resource>
    
    
  <Observation>
  <id value="ID36-systolic"/>
    <text>
      <status value="generated"/>
      <div xmlns="http://www.w3.org/1999/xhtml">2001-01-08: Systolic blood pressure = 116 mm[Hg]</div>
    </text>
    <code>
      <coding>
        <system value="http://loinc.org"/>
        <code value="8480-6"/>
        <display value="Systolic blood pressure"/>
      </coding>
    </code>
    <valueQuantity>
      <value value="116.0"/>
      <unit value="mm[Hg]"/>
      <system value="http://unitsofmeasure.org" />
      <code value="mm[Hg]"/>
    </valueQuantity>
    
    <effectiveDateTime value="2001-01-08"/>
    <status value="final"/>
    <reliability value="ok"/>
    <subject>
      <reference value="Patient/ID629528"/>
    </subject>
  </Observation>
  
  </resource>
  <request>
    <method value="PUT"/>
    <url value="Observation/ID36-systolic"/>
  </request>
</entry>
<entry>
  <resource>
    
    
  <Observation>
  <id value="ID36-diastolic"/>
    <text>
      <status value="generated"/>
      <div xmlns="http://www.w3.org/1999/xhtml">2001-01-08: Diastolic blood pressure = 73 mm[Hg]</div>
    </text>
    <code>
      <coding>
        <system value="http://loinc.org"/>
        <code value="8462-4"/>
        <display value="Diastolic blood pressure"/>
      </coding>
    </code>
    <valueQuantity>
      <value value="73.0"/>
      <unit value="mm[Hg]"/>
      <system value="http://unitsofmeasure.org" />
      <code value="mm[Hg]"/>
    </valueQuantity>
    
    <effectiveDateTime value="2001-01-08"/>
    <status value="final"/>
    <reliability value="ok"/>
    <subject>
      <reference value="Patient/ID629528"/>
    </subject>
  </Observation>
  
  </resource>
  <request>
    <method value="PUT"/>
    <url value="Observation/ID36-diastolic"/>
  </request>
</entry>
  <entry>
  <resource>
    
    
  <Observation>
    <id value="ID37-bp"/>
    <text>
      <status value="generated"/>
      <div xmlns="http://www.w3.org/1999/xhtml">2004-05-10: Blood pressure 124/79 mmHg</div>
    </text>
    <code>
      <coding>
        <system value="http://loinc.org"/>
        <code value="55284-4"/>
        <display value="Blood pressure systolic and diastolic"/>
      </coding>
    </code>
    <effectiveDateTime value="2004-05-10"/>
    <status value="final"/>
    <reliability value="ok"/>
    <subject>
      <reference value="Patient/ID629528"/>
    </subject>
    <related>
      <type value="has-component"/>
      <target>
        <reference value="Observation/ID37-systolic"/>
      </target>
    </related>
    <related>
      <type value="has-component"/>
      <target>
        <reference value="Observation/ID37-diastolic"/>
      </target>
    </related>
    <encounter>
      <reference value="Encounter/ID37"/>
    </encounter>
    

  </Observation>
  
  </resource>
  <request>
    <method value="PUT"/>
    <url value="Observation/ID37-bp"/>
  </request>
</entry>
<entry>
  <resource>
    
    
  <Observation>
  <id value="ID37-systolic"/>
    <text>
      <status value="generated"/>
      <div xmlns="http://www.w3.org/1999/xhtml">2004-05-10: Systolic blood pressure = 124 mm[Hg]</div>
    </text>
    <code>
      <coding>
        <system value="http://loinc.org"/>
        <code value="8480-6"/>
        <display value="Systolic blood pressure"/>
      </coding>
    </code>
    <valueQuantity>
      <value value="124.0"/>
      <unit value="mm[Hg]"/>
      <system value="http://unitsofmeasure.org" />
      <code value="mm[Hg]"/>
    </valueQuantity>
    
    <effectiveDateTime value="2004-05-10"/>
    <status value="final"/>
    <reliability value="ok"/>
    <subject>
      <reference value="Patient/ID629528"/>
    </subject>
  </Observation>
  
  </resource>
  <request>
    <method value="PUT"/>
    <url value="Observation/ID37-systolic"/>
  </request>
</entry>
<entry>
  <resource>
    
    
  <Observation>
  <id value="ID37-diastolic"/>
    <text>
      <status value="generated"/>
      <div xmlns="http://www.w3.org/1999/xhtml">2004-05-10: Diastolic blood pressure = 79 mm[Hg]</div>
    </text>
    <code>
      <coding>
        <system value="http://loinc.org"/>
        <code value="8462-4"/>
        <display value="Diastolic blood pressure"/>
      </coding>
    </code>
    <valueQuantity>
      <value value="79.0"/>
      <unit value="mm[Hg]"/>
      <system value="http://unitsofmeasure.org" />
      <code value="mm[Hg]"/>
    </valueQuantity>
    
    <effectiveDateTime value="2004-05-10"/>
    <status value="final"/>
    <reliability value="ok"/>
    <subject>
      <reference value="Patient/ID629528"/>
    </subject>
  </Observation>
  
  </resource>
  <request>
    <method value="PUT"/>
    <url value="Observation/ID37-diastolic"/>
  </request>
</entry>
  <entry>
  <resource>
    
    
  <Observation>
    <id value="ID38-bp"/>
    <text>
      <status value="generated"/>
      <div xmlns="http://www.w3.org/1999/xhtml">2004-05-11: Blood pressure 120/76 mmHg</div>
    </text>
    <code>
      <coding>
        <system value="http://loinc.org"/>
        <code value="55284-4"/>
        <display value="Blood pressure systolic and diastolic"/>
      </coding>
    </code>
    <effectiveDateTime value="2004-05-11"/>
    <status value="final"/>
    <reliability value="ok"/>
    <subject>
      <reference value="Patient/ID629528"/>
    </subject>
    <related>
      <type value="has-component"/>
      <target>
        <reference value="Observation/ID38-systolic"/>
      </target>
    </related>
    <related>
      <type value="has-component"/>
      <target>
        <reference value="Observation/ID38-diastolic"/>
      </target>
    </related>
    <encounter>
      <reference value="Encounter/ID38"/>
    </encounter>
    

  </Observation>
  
  </resource>
  <request>
    <method value="PUT"/>
    <url value="Observation/ID38-bp"/>
  </request>
</entry>
<entry>
  <resource>
    
    
  <Observation>
  <id value="ID38-systolic"/>
    <text>
      <status value="generated"/>
      <div xmlns="http://www.w3.org/1999/xhtml">2004-05-11: Systolic blood pressure = 120 mm[Hg]</div>
    </text>
    <code>
      <coding>
        <system value="http://loinc.org"/>
        <code value="8480-6"/>
        <display value="Systolic blood pressure"/>
      </coding>
    </code>
    <valueQuantity>
      <value value="120.0"/>
      <unit value="mm[Hg]"/>
      <system value="http://unitsofmeasure.org" />
      <code value="mm[Hg]"/>
    </valueQuantity>
    
    <effectiveDateTime value="2004-05-11"/>
    <status value="final"/>
    <reliability value="ok"/>
    <subject>
      <reference value="Patient/ID629528"/>
    </subject>
  </Observation>
  
  </resource>
  <request>
    <method value="PUT"/>
    <url value="Observation/ID38-systolic"/>
  </request>
</entry>
<entry>
  <resource>
    
    
  <Observation>
  <id value="ID38-diastolic"/>
    <text>
      <status value="generated"/>
      <div xmlns="http://www.w3.org/1999/xhtml">2004-05-11: Diastolic blood pressure = 76 mm[Hg]</div>
    </text>
    <code>
      <coding>
        <system value="http://loinc.org"/>
        <code value="8462-4"/>
        <display value="Diastolic blood pressure"/>
      </coding>
    </code>
    <valueQuantity>
      <value value="76.0"/>
      <unit value="mm[Hg]"/>
      <system value="http://unitsofmeasure.org" />
      <code value="mm[Hg]"/>
    </valueQuantity>
    
    <effectiveDateTime value="2004-05-11"/>
    <status value="final"/>
    <reliability value="ok"/>
    <subject>
      <reference value="Patient/ID629528"/>
    </subject>
  </Observation>
  
  </resource>
  <request>
    <method value="PUT"/>
    <url value="Observation/ID38-diastolic"/>
  </request>
</entry>
  <entry>
  <resource>
    
    
  <Observation>
    <id value="ID39-bp"/>
    <text>
      <status value="generated"/>
      <div xmlns="http://www.w3.org/1999/xhtml">2004-09-03: Blood pressure 121/77 mmHg</div>
    </text>
    <code>
      <coding>
        <system value="http://loinc.org"/>
        <code value="55284-4"/>
        <display value="Blood pressure systolic and diastolic"/>
      </coding>
    </code>
    <effectiveDateTime value="2004-09-03"/>
    <status value="final"/>
    <reliability value="ok"/>
    <subject>
      <reference value="Patient/ID629528"/>
    </subject>
    <related>
      <type value="has-component"/>
      <target>
        <reference value="Observation/ID39-systolic"/>
      </target>
    </related>
    <related>
      <type value="has-component"/>
      <target>
        <reference value="Observation/ID39-diastolic"/>
      </target>
    </related>
    <encounter>
      <reference value="Encounter/ID39"/>
    </encounter>
    

  </Observation>
  
  </resource>
  <request>
    <method value="PUT"/>
    <url value="Observation/ID39-bp"/>
  </request>
</entry>
<entry>
  <resource>
    
    
  <Observation>
  <id value="ID39-systolic"/>
    <text>
      <status value="generated"/>
      <div xmlns="http://www.w3.org/1999/xhtml">2004-09-03: Systolic blood pressure = 121 mm[Hg]</div>
    </text>
    <code>
      <coding>
        <system value="http://loinc.org"/>
        <code value="8480-6"/>
        <display value="Systolic blood pressure"/>
      </coding>
    </code>
    <valueQuantity>
      <value value="121.0"/>
      <unit value="mm[Hg]"/>
      <system value="http://unitsofmeasure.org" />
      <code value="mm[Hg]"/>
    </valueQuantity>
    
    <effectiveDateTime value="2004-09-03"/>
    <status value="final"/>
    <reliability value="ok"/>
    <subject>
      <reference value="Patient/ID629528"/>
    </subject>
  </Observation>
  
  </resource>
  <request>
    <method value="PUT"/>
    <url value="Observation/ID39-systolic"/>
  </request>
</entry>
<entry>
  <resource>
    
    
  <Observation>
  <id value="ID39-diastolic"/>
    <text>
      <status value="generated"/>
      <div xmlns="http://www.w3.org/1999/xhtml">2004-09-03: Diastolic blood pressure = 77 mm[Hg]</div>
    </text>
    <code>
      <coding>
        <system value="http://loinc.org"/>
        <code value="8462-4"/>
        <display value="Diastolic blood pressure"/>
      </coding>
    </code>
    <valueQuantity>
      <value value="77.0"/>
      <unit value="mm[Hg]"/>
      <system value="http://unitsofmeasure.org" />
      <code value="mm[Hg]"/>
    </valueQuantity>
    
    <effectiveDateTime value="2004-09-03"/>
    <status value="final"/>
    <reliability value="ok"/>
    <subject>
      <reference value="Patient/ID629528"/>
    </subject>
  </Observation>
  
  </resource>
  <request>
    <method value="PUT"/>
    <url value="Observation/ID39-diastolic"/>
  </request>
</entry>
<entry>
  <resource>
    
    
  <Observation>
  <id value="ID25-height"/>
    <text>
      <status value="generated"/>
      <div xmlns="http://www.w3.org/1999/xhtml">1997-07-29: height = 166.116 cm</div>
    </text>
    <code>
      <coding>
        <system value="http://loinc.org"/>
        <code value="8302-2"/>
        <display value="height"/>
      </coding>
    </code>
    <valueQuantity>
      <value value="166.116"/>
      <unit value="cm"/>
      <system value="http://unitsofmeasure.org" />
      <code value="cm"/>
    </valueQuantity>
    
    <effectiveDateTime value="1997-07-29"/>
    <status value="final"/>
    <reliability value="ok"/>
    <subject>
      <reference value="Patient/ID629528"/>
    </subject>
    <encounter>
      <reference value="Encounter/ID25"/>
    </encounter>
    
  </Observation>
  
  </resource>
  <request>
    <method value="PUT"/>
    <url value="Observation/ID25-height"/>
  </request>
</entry>
<entry>
  <resource>
    
    
  <Observation>
  <id value="ID25-heartrate"/>
    <text>
      <status value="generated"/>
      <div xmlns="http://www.w3.org/1999/xhtml">1997-07-29: heart_rate = 65.0 {beats}/min</div>
    </text>
    <code>
      <coding>
        <system value="http://loinc.org"/>
        <code value="8867-4"/>
        <display value="heart_rate"/>
      </coding>
    </code>
    <valueQuantity>
      <value value="65.0"/>
      <unit value="{beats}/min"/>
      <system value="http://unitsofmeasure.org" />
      <code value="{beats}/min"/>
    </valueQuantity>
    
    <effectiveDateTime value="1997-07-29"/>
    <status value="final"/>
    <reliability value="ok"/>
    <subject>
      <reference value="Patient/ID629528"/>
    </subject>
    <encounter>
      <reference value="Encounter/ID25"/>
    </encounter>
    
  </Observation>
  
  </resource>
  <request>
    <method value="PUT"/>
    <url value="Observation/ID25-heartrate"/>
  </request>
</entry>
<entry>
  <resource>
    
    
  <Observation>
  <id value="ID25-respiratoryrate"/>
    <text>
      <status value="generated"/>
      <div xmlns="http://www.w3.org/1999/xhtml">1997-07-29: respiratory_rate = 18.0 {breaths}/min</div>
    </text>
    <code>
      <coding>
        <system value="http://loinc.org"/>
        <code value="9279-1"/>
        <display value="respiratory_rate"/>
      </coding>
    </code>
    <valueQuantity>
      <value value="18.0"/>
      <unit value="{breaths}/min"/>
      <system value="http://unitsofmeasure.org" />
      <code value="{breaths}/min"/>
    </valueQuantity>
    
    <effectiveDateTime value="1997-07-29"/>
    <status value="final"/>
    <reliability value="ok"/>
    <subject>
      <reference value="Patient/ID629528"/>
    </subject>
    <encounter>
      <reference value="Encounter/ID25"/>
    </encounter>
    
  </Observation>
  
  </resource>
  <request>
    <method value="PUT"/>
    <url value="Observation/ID25-respiratoryrate"/>
  </request>
</entry>
<entry>
  <resource>
    
    
  <Observation>
  <id value="ID25-temperature"/>
    <text>
      <status value="generated"/>
      <div xmlns="http://www.w3.org/1999/xhtml">1997-07-29: temperature = 36.55556 Cel</div>
    </text>
    <code>
      <coding>
        <system value="http://loinc.org"/>
        <code value="8310-5"/>
        <display value="temperature"/>
      </coding>
    </code>
    <valueQuantity>
      <value value="36.55556"/>
      <unit value="Cel"/>
      <system value="http://unitsofmeasure.org" />
      <code value="Cel"/>
    </valueQuantity>
    
    <effectiveDateTime value="1997-07-29"/>
    <status value="final"/>
    <reliability value="ok"/>
    <subject>
      <reference value="Patient/ID629528"/>
    </subject>
    <encounter>
      <reference value="Encounter/ID25"/>
    </encounter>
    
  </Observation>
  
  </resource>
  <request>
    <method value="PUT"/>
    <url value="Observation/ID25-temperature"/>
  </request>
</entry>
<entry>
  <resource>
    
    
  <Observation>
  <id value="ID25-weight"/>
    <text>
      <status value="generated"/>
      <div xmlns="http://www.w3.org/1999/xhtml">1997-07-29: weight = 38.0564 kg</div>
    </text>
    <code>
      <coding>
        <system value="http://loinc.org"/>
        <code value="3141-9"/>
        <display value="weight"/>
      </coding>
    </code>
    <valueQuantity>
      <value value="38.0564"/>
      <unit value="kg"/>
      <system value="http://unitsofmeasure.org" />
      <code value="kg"/>
    </valueQuantity>
    
    <effectiveDateTime value="1997-07-29"/>
    <status value="final"/>
    <reliability value="ok"/>
    <subject>
      <reference value="Patient/ID629528"/>
    </subject>
    <encounter>
      <reference value="Encounter/ID25"/>
    </encounter>
    
  </Observation>
  
  </resource>
  <request>
    <method value="PUT"/>
    <url value="Observation/ID25-weight"/>
  </request>
</entry>
<entry>
  <resource>
    
    
  <Observation>
  <id value="ID25-bmi"/>
    <text>
      <status value="generated"/>
      <div xmlns="http://www.w3.org/1999/xhtml">1997-07-29: bmi = 13.8 kg/m2</div>
    </text>
    <code>
      <coding>
        <system value="http://loinc.org"/>
        <code value="39156-5"/>
        <display value="bmi"/>
      </coding>
    </code>
    <valueQuantity>
      <value value="13.8"/>
      <unit value="kg/m2"/>
      <system value="http://unitsofmeasure.org" />
      <code value="kg/m2"/>
    </valueQuantity>
    
    <effectiveDateTime value="1997-07-29"/>
    <status value="final"/>
    <reliability value="ok"/>
    <subject>
      <reference value="Patient/ID629528"/>
    </subject>
    <encounter>
      <reference value="Encounter/ID25"/>
    </encounter>
    
  </Observation>
  
  </resource>
  <request>
    <method value="PUT"/>
    <url value="Observation/ID25-bmi"/>
  </request>
</entry>
<entry>
  <resource>
    
    
  <Observation>
  <id value="ID25-oxygensaturation"/>
    <text>
      <status value="generated"/>
      <div xmlns="http://www.w3.org/1999/xhtml">1997-07-29: oxygen_saturation = 93.0 %{HemoglobinSaturation}</div>
    </text>
    <code>
      <coding>
        <system value="http://loinc.org"/>
        <code value="2710-2"/>
        <display value="oxygen_saturation"/>
      </coding>
    </code>
    <valueQuantity>
      <value value="93.0"/>
      <unit value="%{HemoglobinSaturation}"/>
      <system value="http://unitsofmeasure.org" />
      <code value="%{HemoglobinSaturation}"/>
    </valueQuantity>
    
    <effectiveDateTime value="1997-07-29"/>
    <status value="final"/>
    <reliability value="ok"/>
    <subject>
      <reference value="Patient/ID629528"/>
    </subject>
    <encounter>
      <reference value="Encounter/ID25"/>
    </encounter>
    
  </Observation>
  
  </resource>
  <request>
    <method value="PUT"/>
    <url value="Observation/ID25-oxygensaturation"/>
  </request>
</entry>
<entry>
  <resource>
    
    
  <Observation>
  <id value="ID26-height"/>
    <text>
      <status value="generated"/>
      <div xmlns="http://www.w3.org/1999/xhtml">1997-07-31: height = 166.116 cm</div>
    </text>
    <code>
      <coding>
        <system value="http://loinc.org"/>
        <code value="8302-2"/>
        <display value="height"/>
      </coding>
    </code>
    <valueQuantity>
      <value value="166.116"/>
      <unit value="cm"/>
      <system value="http://unitsofmeasure.org" />
      <code value="cm"/>
    </valueQuantity>
    
    <effectiveDateTime value="1997-07-31"/>
    <status value="final"/>
    <reliability value="ok"/>
    <subject>
      <reference value="Patient/ID629528"/>
    </subject>
    <encounter>
      <reference value="Encounter/ID26"/>
    </encounter>
    
  </Observation>
  
  </resource>
  <request>
    <method value="PUT"/>
    <url value="Observation/ID26-height"/>
  </request>
</entry>
<entry>
  <resource>
    
    
  <Observation>
  <id value="ID26-heartrate"/>
    <text>
      <status value="generated"/>
      <div xmlns="http://www.w3.org/1999/xhtml">1997-07-31: heart_rate = 68.0 {beats}/min</div>
    </text>
    <code>
      <coding>
        <system value="http://loinc.org"/>
        <code value="8867-4"/>
        <display value="heart_rate"/>
      </coding>
    </code>
    <valueQuantity>
      <value value="68.0"/>
      <unit value="{beats}/min"/>
      <system value="http://unitsofmeasure.org" />
      <code value="{beats}/min"/>
    </valueQuantity>
    
    <effectiveDateTime value="1997-07-31"/>
    <status value="final"/>
    <reliability value="ok"/>
    <subject>
      <reference value="Patient/ID629528"/>
    </subject>
    <encounter>
      <reference value="Encounter/ID26"/>
    </encounter>
    
  </Observation>
  
  </resource>
  <request>
    <method value="PUT"/>
    <url value="Observation/ID26-heartrate"/>
  </request>
</entry>
<entry>
  <resource>
    
    
  <Observation>
  <id value="ID26-respiratoryrate"/>
    <text>
      <status value="generated"/>
      <div xmlns="http://www.w3.org/1999/xhtml">1997-07-31: respiratory_rate = 18.0 {breaths}/min</div>
    </text>
    <code>
      <coding>
        <system value="http://loinc.org"/>
        <code value="9279-1"/>
        <display value="respiratory_rate"/>
      </coding>
    </code>
    <valueQuantity>
      <value value="18.0"/>
      <unit value="{breaths}/min"/>
      <system value="http://unitsofmeasure.org" />
      <code value="{breaths}/min"/>
    </valueQuantity>
    
    <effectiveDateTime value="1997-07-31"/>
    <status value="final"/>
    <reliability value="ok"/>
    <subject>
      <reference value="Patient/ID629528"/>
    </subject>
    <encounter>
      <reference value="Encounter/ID26"/>
    </encounter>
    
  </Observation>
  
  </resource>
  <request>
    <method value="PUT"/>
    <url value="Observation/ID26-respiratoryrate"/>
  </request>
</entry>
<entry>
  <resource>
    
    
  <Observation>
  <id value="ID26-temperature"/>
    <text>
      <status value="generated"/>
      <div xmlns="http://www.w3.org/1999/xhtml">1997-07-31: temperature = 36.55556 Cel</div>
    </text>
    <code>
      <coding>
        <system value="http://loinc.org"/>
        <code value="8310-5"/>
        <display value="temperature"/>
      </coding>
    </code>
    <valueQuantity>
      <value value="36.55556"/>
      <unit value="Cel"/>
      <system value="http://unitsofmeasure.org" />
      <code value="Cel"/>
    </valueQuantity>
    
    <effectiveDateTime value="1997-07-31"/>
    <status value="final"/>
    <reliability value="ok"/>
    <subject>
      <reference value="Patient/ID629528"/>
    </subject>
    <encounter>
      <reference value="Encounter/ID26"/>
    </encounter>
    
  </Observation>
  
  </resource>
  <request>
    <method value="PUT"/>
    <url value="Observation/ID26-temperature"/>
  </request>
</entry>
<entry>
  <resource>
    
    
  <Observation>
  <id value="ID26-weight"/>
    <text>
      <status value="generated"/>
      <div xmlns="http://www.w3.org/1999/xhtml">1997-07-31: weight = 39.78005 kg</div>
    </text>
    <code>
      <coding>
        <system value="http://loinc.org"/>
        <code value="3141-9"/>
        <display value="weight"/>
      </coding>
    </code>
    <valueQuantity>
      <value value="39.78005"/>
      <unit value="kg"/>
      <system value="http://unitsofmeasure.org" />
      <code value="kg"/>
    </valueQuantity>
    
    <effectiveDateTime value="1997-07-31"/>
    <status value="final"/>
    <reliability value="ok"/>
    <subject>
      <reference value="Patient/ID629528"/>
    </subject>
    <encounter>
      <reference value="Encounter/ID26"/>
    </encounter>
    
  </Observation>
  
  </resource>
  <request>
    <method value="PUT"/>
    <url value="Observation/ID26-weight"/>
  </request>
</entry>
<entry>
  <resource>
    
    
  <Observation>
  <id value="ID26-bmi"/>
    <text>
      <status value="generated"/>
      <div xmlns="http://www.w3.org/1999/xhtml">1997-07-31: bmi = 14.4 kg/m2</div>
    </text>
    <code>
      <coding>
        <system value="http://loinc.org"/>
        <code value="39156-5"/>
        <display value="bmi"/>
      </coding>
    </code>
    <valueQuantity>
      <value value="14.4"/>
      <unit value="kg/m2"/>
      <system value="http://unitsofmeasure.org" />
      <code value="kg/m2"/>
    </valueQuantity>
    
    <effectiveDateTime value="1997-07-31"/>
    <status value="final"/>
    <reliability value="ok"/>
    <subject>
      <reference value="Patient/ID629528"/>
    </subject>
    <encounter>
      <reference value="Encounter/ID26"/>
    </encounter>
    
  </Observation>
  
  </resource>
  <request>
    <method value="PUT"/>
    <url value="Observation/ID26-bmi"/>
  </request>
</entry>
<entry>
  <resource>
    
    
  <Observation>
  <id value="ID26-oxygensaturation"/>
    <text>
      <status value="generated"/>
      <div xmlns="http://www.w3.org/1999/xhtml">1997-07-31: oxygen_saturation = 93.0 %{HemoglobinSaturation}</div>
    </text>
    <code>
      <coding>
        <system value="http://loinc.org"/>
        <code value="2710-2"/>
        <display value="oxygen_saturation"/>
      </coding>
    </code>
    <valueQuantity>
      <value value="93.0"/>
      <unit value="%{HemoglobinSaturation}"/>
      <system value="http://unitsofmeasure.org" />
      <code value="%{HemoglobinSaturation}"/>
    </valueQuantity>
    
    <effectiveDateTime value="1997-07-31"/>
    <status value="final"/>
    <reliability value="ok"/>
    <subject>
      <reference value="Patient/ID629528"/>
    </subject>
    <encounter>
      <reference value="Encounter/ID26"/>
    </encounter>
    
  </Observation>
  
  </resource>
  <request>
    <method value="PUT"/>
    <url value="Observation/ID26-oxygensaturation"/>
  </request>
</entry>
<entry>
  <resource>
    
    
  <Observation>
  <id value="ID27-height"/>
    <text>
      <status value="generated"/>
      <div xmlns="http://www.w3.org/1999/xhtml">1997-10-24: height = 166.116 cm</div>
    </text>
    <code>
      <coding>
        <system value="http://loinc.org"/>
        <code value="8302-2"/>
        <display value="height"/>
      </coding>
    </code>
    <valueQuantity>
      <value value="166.116"/>
      <unit value="cm"/>
      <system value="http://unitsofmeasure.org" />
      <code value="cm"/>
    </valueQuantity>
    
    <effectiveDateTime value="1997-10-24"/>
    <status value="final"/>
    <reliability value="ok"/>
    <subject>
      <reference value="Patient/ID629528"/>
    </subject>
    <encounter>
      <reference value="Encounter/ID27"/>
    </encounter>
    
  </Observation>
  
  </resource>
  <request>
    <method value="PUT"/>
    <url value="Observation/ID27-height"/>
  </request>
</entry>
<entry>
  <resource>
    
    
  <Observation>
  <id value="ID27-heartrate"/>
    <text>
      <status value="generated"/>
      <div xmlns="http://www.w3.org/1999/xhtml">1997-10-24: heart_rate = 69.0 {beats}/min</div>
    </text>
    <code>
      <coding>
        <system value="http://loinc.org"/>
        <code value="8867-4"/>
        <display value="heart_rate"/>
      </coding>
    </code>
    <valueQuantity>
      <value value="69.0"/>
      <unit value="{beats}/min"/>
      <system value="http://unitsofmeasure.org" />
      <code value="{beats}/min"/>
    </valueQuantity>
    
    <effectiveDateTime value="1997-10-24"/>
    <status value="final"/>
    <reliability value="ok"/>
    <subject>
      <reference value="Patient/ID629528"/>
    </subject>
    <encounter>
      <reference value="Encounter/ID27"/>
    </encounter>
    
  </Observation>
  
  </resource>
  <request>
    <method value="PUT"/>
    <url value="Observation/ID27-heartrate"/>
  </request>
</entry>
<entry>
  <resource>
    
    
  <Observation>
  <id value="ID27-respiratoryrate"/>
    <text>
      <status value="generated"/>
      <div xmlns="http://www.w3.org/1999/xhtml">1997-10-24: respiratory_rate = 18.0 {breaths}/min</div>
    </text>
    <code>
      <coding>
        <system value="http://loinc.org"/>
        <code value="9279-1"/>
        <display value="respiratory_rate"/>
      </coding>
    </code>
    <valueQuantity>
      <value value="18.0"/>
      <unit value="{breaths}/min"/>
      <system value="http://unitsofmeasure.org" />
      <code value="{breaths}/min"/>
    </valueQuantity>
    
    <effectiveDateTime value="1997-10-24"/>
    <status value="final"/>
    <reliability value="ok"/>
    <subject>
      <reference value="Patient/ID629528"/>
    </subject>
    <encounter>
      <reference value="Encounter/ID27"/>
    </encounter>
    
  </Observation>
  
  </resource>
  <request>
    <method value="PUT"/>
    <url value="Observation/ID27-respiratoryrate"/>
  </request>
</entry>
<entry>
  <resource>
    
    
  <Observation>
  <id value="ID27-temperature"/>
    <text>
      <status value="generated"/>
      <div xmlns="http://www.w3.org/1999/xhtml">1997-10-24: temperature = 36.55556 Cel</div>
    </text>
    <code>
      <coding>
        <system value="http://loinc.org"/>
        <code value="8310-5"/>
        <display value="temperature"/>
      </coding>
    </code>
    <valueQuantity>
      <value value="36.55556"/>
      <unit value="Cel"/>
      <system value="http://unitsofmeasure.org" />
      <code value="Cel"/>
    </valueQuantity>
    
    <effectiveDateTime value="1997-10-24"/>
    <status value="final"/>
    <reliability value="ok"/>
    <subject>
      <reference value="Patient/ID629528"/>
    </subject>
    <encounter>
      <reference value="Encounter/ID27"/>
    </encounter>
    
  </Observation>
  
  </resource>
  <request>
    <method value="PUT"/>
    <url value="Observation/ID27-temperature"/>
  </request>
</entry>
<entry>
  <resource>
    
    
  <Observation>
  <id value="ID27-weight"/>
    <text>
      <status value="generated"/>
      <div xmlns="http://www.w3.org/1999/xhtml">1997-10-24: weight = 32.65865 kg</div>
    </text>
    <code>
      <coding>
        <system value="http://loinc.org"/>
        <code value="3141-9"/>
        <display value="weight"/>
      </coding>
    </code>
    <valueQuantity>
      <value value="32.65865"/>
      <unit value="kg"/>
      <system value="http://unitsofmeasure.org" />
      <code value="kg"/>
    </valueQuantity>
    
    <effectiveDateTime value="1997-10-24"/>
    <status value="final"/>
    <reliability value="ok"/>
    <subject>
      <reference value="Patient/ID629528"/>
    </subject>
    <encounter>
      <reference value="Encounter/ID27"/>
    </encounter>
    
  </Observation>
  
  </resource>
  <request>
    <method value="PUT"/>
    <url value="Observation/ID27-weight"/>
  </request>
</entry>
<entry>
  <resource>
    
    
  <Observation>
  <id value="ID27-bmi"/>
    <text>
      <status value="generated"/>
      <div xmlns="http://www.w3.org/1999/xhtml">1997-10-24: bmi = 11.8 kg/m2</div>
    </text>
    <code>
      <coding>
        <system value="http://loinc.org"/>
        <code value="39156-5"/>
        <display value="bmi"/>
      </coding>
    </code>
    <valueQuantity>
      <value value="11.8"/>
      <unit value="kg/m2"/>
      <system value="http://unitsofmeasure.org" />
      <code value="kg/m2"/>
    </valueQuantity>
    
    <effectiveDateTime value="1997-10-24"/>
    <status value="final"/>
    <reliability value="ok"/>
    <subject>
      <reference value="Patient/ID629528"/>
    </subject>
    <encounter>
      <reference value="Encounter/ID27"/>
    </encounter>
    
  </Observation>
  
  </resource>
  <request>
    <method value="PUT"/>
    <url value="Observation/ID27-bmi"/>
  </request>
</entry>
<entry>
  <resource>
    
    
  <Observation>
  <id value="ID27-oxygensaturation"/>
    <text>
      <status value="generated"/>
      <div xmlns="http://www.w3.org/1999/xhtml">1997-10-24: oxygen_saturation = 93.0 %{HemoglobinSaturation}</div>
    </text>
    <code>
      <coding>
        <system value="http://loinc.org"/>
        <code value="2710-2"/>
        <display value="oxygen_saturation"/>
      </coding>
    </code>
    <valueQuantity>
      <value value="93.0"/>
      <unit value="%{HemoglobinSaturation}"/>
      <system value="http://unitsofmeasure.org" />
      <code value="%{HemoglobinSaturation}"/>
    </valueQuantity>
    
    <effectiveDateTime value="1997-10-24"/>
    <status value="final"/>
    <reliability value="ok"/>
    <subject>
      <reference value="Patient/ID629528"/>
    </subject>
    <encounter>
      <reference value="Encounter/ID27"/>
    </encounter>
    
  </Observation>
  
  </resource>
  <request>
    <method value="PUT"/>
    <url value="Observation/ID27-oxygensaturation"/>
  </request>
</entry>
<entry>
  <resource>
    
    
  <Observation>
  <id value="ID28-height"/>
    <text>
      <status value="generated"/>
      <div xmlns="http://www.w3.org/1999/xhtml">1998-03-27: height = 166.624 cm</div>
    </text>
    <code>
      <coding>
        <system value="http://loinc.org"/>
        <code value="8302-2"/>
        <display value="height"/>
      </coding>
    </code>
    <valueQuantity>
      <value value="166.624"/>
      <unit value="cm"/>
      <system value="http://unitsofmeasure.org" />
      <code value="cm"/>
    </valueQuantity>
    
    <effectiveDateTime value="1998-03-27"/>
    <status value="final"/>
    <reliability value="ok"/>
    <subject>
      <reference value="Patient/ID629528"/>
    </subject>
    <encounter>
      <reference value="Encounter/ID28"/>
    </encounter>
    
  </Observation>
  
  </resource>
  <request>
    <method value="PUT"/>
    <url value="Observation/ID28-height"/>
  </request>
</entry>
<entry>
  <resource>
    
    
  <Observation>
  <id value="ID28-heartrate"/>
    <text>
      <status value="generated"/>
      <div xmlns="http://www.w3.org/1999/xhtml">1998-03-27: heart_rate = 68.0 {beats}/min</div>
    </text>
    <code>
      <coding>
        <system value="http://loinc.org"/>
        <code value="8867-4"/>
        <display value="heart_rate"/>
      </coding>
    </code>
    <valueQuantity>
      <value value="68.0"/>
      <unit value="{beats}/min"/>
      <system value="http://unitsofmeasure.org" />
      <code value="{beats}/min"/>
    </valueQuantity>
    
    <effectiveDateTime value="1998-03-27"/>
    <status value="final"/>
    <reliability value="ok"/>
    <subject>
      <reference value="Patient/ID629528"/>
    </subject>
    <encounter>
      <reference value="Encounter/ID28"/>
    </encounter>
    
  </Observation>
  
  </resource>
  <request>
    <method value="PUT"/>
    <url value="Observation/ID28-heartrate"/>
  </request>
</entry>
<entry>
  <resource>
    
    
  <Observation>
  <id value="ID28-respiratoryrate"/>
    <text>
      <status value="generated"/>
      <div xmlns="http://www.w3.org/1999/xhtml">1998-03-27: respiratory_rate = 18.0 {breaths}/min</div>
    </text>
    <code>
      <coding>
        <system value="http://loinc.org"/>
        <code value="9279-1"/>
        <display value="respiratory_rate"/>
      </coding>
    </code>
    <valueQuantity>
      <value value="18.0"/>
      <unit value="{breaths}/min"/>
      <system value="http://unitsofmeasure.org" />
      <code value="{breaths}/min"/>
    </valueQuantity>
    
    <effectiveDateTime value="1998-03-27"/>
    <status value="final"/>
    <reliability value="ok"/>
    <subject>
      <reference value="Patient/ID629528"/>
    </subject>
    <encounter>
      <reference value="Encounter/ID28"/>
    </encounter>
    
  </Observation>
  
  </resource>
  <request>
    <method value="PUT"/>
    <url value="Observation/ID28-respiratoryrate"/>
  </request>
</entry>
<entry>
  <resource>
    
    
  <Observation>
  <id value="ID28-temperature"/>
    <text>
      <status value="generated"/>
      <div xmlns="http://www.w3.org/1999/xhtml">1998-03-27: temperature = 36.55556 Cel</div>
    </text>
    <code>
      <coding>
        <system value="http://loinc.org"/>
        <code value="8310-5"/>
        <display value="temperature"/>
      </coding>
    </code>
    <valueQuantity>
      <value value="36.55556"/>
      <unit value="Cel"/>
      <system value="http://unitsofmeasure.org" />
      <code value="Cel"/>
    </valueQuantity>
    
    <effectiveDateTime value="1998-03-27"/>
    <status value="final"/>
    <reliability value="ok"/>
    <subject>
      <reference value="Patient/ID629528"/>
    </subject>
    <encounter>
      <reference value="Encounter/ID28"/>
    </encounter>
    
  </Observation>
  
  </resource>
  <request>
    <method value="PUT"/>
    <url value="Observation/ID28-temperature"/>
  </request>
</entry>
<entry>
  <resource>
    
    
  <Observation>
  <id value="ID28-weight"/>
    <text>
      <status value="generated"/>
      <div xmlns="http://www.w3.org/1999/xhtml">1998-03-27: weight = 35.8338 kg</div>
    </text>
    <code>
      <coding>
        <system value="http://loinc.org"/>
        <code value="3141-9"/>
        <display value="weight"/>
      </coding>
    </code>
    <valueQuantity>
      <value value="35.8338"/>
      <unit value="kg"/>
      <system value="http://unitsofmeasure.org" />
      <code value="kg"/>
    </valueQuantity>
    
    <effectiveDateTime value="1998-03-27"/>
    <status value="final"/>
    <reliability value="ok"/>
    <subject>
      <reference value="Patient/ID629528"/>
    </subject>
    <encounter>
      <reference value="Encounter/ID28"/>
    </encounter>
    
  </Observation>
  
  </resource>
  <request>
    <method value="PUT"/>
    <url value="Observation/ID28-weight"/>
  </request>
</entry>
<entry>
  <resource>
    
    
  <Observation>
  <id value="ID28-bmi"/>
    <text>
      <status value="generated"/>
      <div xmlns="http://www.w3.org/1999/xhtml">1998-03-27: bmi = 12.9 kg/m2</div>
    </text>
    <code>
      <coding>
        <system value="http://loinc.org"/>
        <code value="39156-5"/>
        <display value="bmi"/>
      </coding>
    </code>
    <valueQuantity>
      <value value="12.9"/>
      <unit value="kg/m2"/>
      <system value="http://unitsofmeasure.org" />
      <code value="kg/m2"/>
    </valueQuantity>
    
    <effectiveDateTime value="1998-03-27"/>
    <status value="final"/>
    <reliability value="ok"/>
    <subject>
      <reference value="Patient/ID629528"/>
    </subject>
    <encounter>
      <reference value="Encounter/ID28"/>
    </encounter>
    
  </Observation>
  
  </resource>
  <request>
    <method value="PUT"/>
    <url value="Observation/ID28-bmi"/>
  </request>
</entry>
<entry>
  <resource>
    
    
  <Observation>
  <id value="ID28-oxygensaturation"/>
    <text>
      <status value="generated"/>
      <div xmlns="http://www.w3.org/1999/xhtml">1998-03-27: oxygen_saturation = 99.0 %{HemoglobinSaturation}</div>
    </text>
    <code>
      <coding>
        <system value="http://loinc.org"/>
        <code value="2710-2"/>
        <display value="oxygen_saturation"/>
      </coding>
    </code>
    <valueQuantity>
      <value value="99.0"/>
      <unit value="%{HemoglobinSaturation}"/>
      <system value="http://unitsofmeasure.org" />
      <code value="%{HemoglobinSaturation}"/>
    </valueQuantity>
    
    <effectiveDateTime value="1998-03-27"/>
    <status value="final"/>
    <reliability value="ok"/>
    <subject>
      <reference value="Patient/ID629528"/>
    </subject>
    <encounter>
      <reference value="Encounter/ID28"/>
    </encounter>
    
  </Observation>
  
  </resource>
  <request>
    <method value="PUT"/>
    <url value="Observation/ID28-oxygensaturation"/>
  </request>
</entry>
<entry>
  <resource>
    
    
  <Observation>
  <id value="ID29-height"/>
    <text>
      <status value="generated"/>
      <div xmlns="http://www.w3.org/1999/xhtml">1998-08-04: height = 166.878 cm</div>
    </text>
    <code>
      <coding>
        <system value="http://loinc.org"/>
        <code value="8302-2"/>
        <display value="height"/>
      </coding>
    </code>
    <valueQuantity>
      <value value="166.878"/>
      <unit value="cm"/>
      <system value="http://unitsofmeasure.org" />
      <code value="cm"/>
    </valueQuantity>
    
    <effectiveDateTime value="1998-08-04"/>
    <status value="final"/>
    <reliability value="ok"/>
    <subject>
      <reference value="Patient/ID629528"/>
    </subject>
    <encounter>
      <reference value="Encounter/ID29"/>
    </encounter>
    
  </Observation>
  
  </resource>
  <request>
    <method value="PUT"/>
    <url value="Observation/ID29-height"/>
  </request>
</entry>
<entry>
  <resource>
    
    
  <Observation>
  <id value="ID29-heartrate"/>
    <text>
      <status value="generated"/>
      <div xmlns="http://www.w3.org/1999/xhtml">1998-08-04: heart_rate = 67.0 {beats}/min</div>
    </text>
    <code>
      <coding>
        <system value="http://loinc.org"/>
        <code value="8867-4"/>
        <display value="heart_rate"/>
      </coding>
    </code>
    <valueQuantity>
      <value value="67.0"/>
      <unit value="{beats}/min"/>
      <system value="http://unitsofmeasure.org" />
      <code value="{beats}/min"/>
    </valueQuantity>
    
    <effectiveDateTime value="1998-08-04"/>
    <status value="final"/>
    <reliability value="ok"/>
    <subject>
      <reference value="Patient/ID629528"/>
    </subject>
    <encounter>
      <reference value="Encounter/ID29"/>
    </encounter>
    
  </Observation>
  
  </resource>
  <request>
    <method value="PUT"/>
    <url value="Observation/ID29-heartrate"/>
  </request>
</entry>
<entry>
  <resource>
    
    
  <Observation>
  <id value="ID29-respiratoryrate"/>
    <text>
      <status value="generated"/>
      <div xmlns="http://www.w3.org/1999/xhtml">1998-08-04: respiratory_rate = 18.0 {breaths}/min</div>
    </text>
    <code>
      <coding>
        <system value="http://loinc.org"/>
        <code value="9279-1"/>
        <display value="respiratory_rate"/>
      </coding>
    </code>
    <valueQuantity>
      <value value="18.0"/>
      <unit value="{breaths}/min"/>
      <system value="http://unitsofmeasure.org" />
      <code value="{breaths}/min"/>
    </valueQuantity>
    
    <effectiveDateTime value="1998-08-04"/>
    <status value="final"/>
    <reliability value="ok"/>
    <subject>
      <reference value="Patient/ID629528"/>
    </subject>
    <encounter>
      <reference value="Encounter/ID29"/>
    </encounter>
    
  </Observation>
  
  </resource>
  <request>
    <method value="PUT"/>
    <url value="Observation/ID29-respiratoryrate"/>
  </request>
</entry>
<entry>
  <resource>
    
    
  <Observation>
  <id value="ID29-temperature"/>
    <text>
      <status value="generated"/>
      <div xmlns="http://www.w3.org/1999/xhtml">1998-08-04: temperature = 36.55556 Cel</div>
    </text>
    <code>
      <coding>
        <system value="http://loinc.org"/>
        <code value="8310-5"/>
        <display value="temperature"/>
      </coding>
    </code>
    <valueQuantity>
      <value value="36.55556"/>
      <unit value="Cel"/>
      <system value="http://unitsofmeasure.org" />
      <code value="Cel"/>
    </valueQuantity>
    
    <effectiveDateTime value="1998-08-04"/>
    <status value="final"/>
    <reliability value="ok"/>
    <subject>
      <reference value="Patient/ID629528"/>
    </subject>
    <encounter>
      <reference value="Encounter/ID29"/>
    </encounter>
    
  </Observation>
  
  </resource>
  <request>
    <method value="PUT"/>
    <url value="Observation/ID29-temperature"/>
  </request>
</entry>
<entry>
  <resource>
    
    
  <Observation>
  <id value="ID29-weight"/>
    <text>
      <status value="generated"/>
      <div xmlns="http://www.w3.org/1999/xhtml">1998-08-04: weight = 29.07527 kg</div>
    </text>
    <code>
      <coding>
        <system value="http://loinc.org"/>
        <code value="3141-9"/>
        <display value="weight"/>
      </coding>
    </code>
    <valueQuantity>
      <value value="29.07527"/>
      <unit value="kg"/>
      <system value="http://unitsofmeasure.org" />
      <code value="kg"/>
    </valueQuantity>
    
    <effectiveDateTime value="1998-08-04"/>
    <status value="final"/>
    <reliability value="ok"/>
    <subject>
      <reference value="Patient/ID629528"/>
    </subject>
    <encounter>
      <reference value="Encounter/ID29"/>
    </encounter>
    
  </Observation>
  
  </resource>
  <request>
    <method value="PUT"/>
    <url value="Observation/ID29-weight"/>
  </request>
</entry>
<entry>
  <resource>
    
    
  <Observation>
  <id value="ID29-bmi"/>
    <text>
      <status value="generated"/>
      <div xmlns="http://www.w3.org/1999/xhtml">1998-08-04: bmi = 10.4 kg/m2</div>
    </text>
    <code>
      <coding>
        <system value="http://loinc.org"/>
        <code value="39156-5"/>
        <display value="bmi"/>
      </coding>
    </code>
    <valueQuantity>
      <value value="10.4"/>
      <unit value="kg/m2"/>
      <system value="http://unitsofmeasure.org" />
      <code value="kg/m2"/>
    </valueQuantity>
    
    <effectiveDateTime value="1998-08-04"/>
    <status value="final"/>
    <reliability value="ok"/>
    <subject>
      <reference value="Patient/ID629528"/>
    </subject>
    <encounter>
      <reference value="Encounter/ID29"/>
    </encounter>
    
  </Observation>
  
  </resource>
  <request>
    <method value="PUT"/>
    <url value="Observation/ID29-bmi"/>
  </request>
</entry>
<entry>
  <resource>
    
    
  <Observation>
  <id value="ID29-oxygensaturation"/>
    <text>
      <status value="generated"/>
      <div xmlns="http://www.w3.org/1999/xhtml">1998-08-04: oxygen_saturation = 99.0 %{HemoglobinSaturation}</div>
    </text>
    <code>
      <coding>
        <system value="http://loinc.org"/>
        <code value="2710-2"/>
        <display value="oxygen_saturation"/>
      </coding>
    </code>
    <valueQuantity>
      <value value="99.0"/>
      <unit value="%{HemoglobinSaturation}"/>
      <system value="http://unitsofmeasure.org" />
      <code value="%{HemoglobinSaturation}"/>
    </valueQuantity>
    
    <effectiveDateTime value="1998-08-04"/>
    <status value="final"/>
    <reliability value="ok"/>
    <subject>
      <reference value="Patient/ID629528"/>
    </subject>
    <encounter>
      <reference value="Encounter/ID29"/>
    </encounter>
    
  </Observation>
  
  </resource>
  <request>
    <method value="PUT"/>
    <url value="Observation/ID29-oxygensaturation"/>
  </request>
</entry>
<entry>
  <resource>
    
    
  <Observation>
  <id value="ID30-height"/>
    <text>
      <status value="generated"/>
      <div xmlns="http://www.w3.org/1999/xhtml">1998-08-05: height = 166.878 cm</div>
    </text>
    <code>
      <coding>
        <system value="http://loinc.org"/>
        <code value="8302-2"/>
        <display value="height"/>
      </coding>
    </code>
    <valueQuantity>
      <value value="166.878"/>
      <unit value="cm"/>
      <system value="http://unitsofmeasure.org" />
      <code value="cm"/>
    </valueQuantity>
    
    <effectiveDateTime value="1998-08-05"/>
    <status value="final"/>
    <reliability value="ok"/>
    <subject>
      <reference value="Patient/ID629528"/>
    </subject>
    <encounter>
      <reference value="Encounter/ID30"/>
    </encounter>
    
  </Observation>
  
  </resource>
  <request>
    <method value="PUT"/>
    <url value="Observation/ID30-height"/>
  </request>
</entry>
<entry>
  <resource>
    
    
  <Observation>
  <id value="ID30-heartrate"/>
    <text>
      <status value="generated"/>
      <div xmlns="http://www.w3.org/1999/xhtml">1998-08-05: heart_rate = 71.0 {beats}/min</div>
    </text>
    <code>
      <coding>
        <system value="http://loinc.org"/>
        <code value="8867-4"/>
        <display value="heart_rate"/>
      </coding>
    </code>
    <valueQuantity>
      <value value="71.0"/>
      <unit value="{beats}/min"/>
      <system value="http://unitsofmeasure.org" />
      <code value="{beats}/min"/>
    </valueQuantity>
    
    <effectiveDateTime value="1998-08-05"/>
    <status value="final"/>
    <reliability value="ok"/>
    <subject>
      <reference value="Patient/ID629528"/>
    </subject>
    <encounter>
      <reference value="Encounter/ID30"/>
    </encounter>
    
  </Observation>
  
  </resource>
  <request>
    <method value="PUT"/>
    <url value="Observation/ID30-heartrate"/>
  </request>
</entry>
<entry>
  <resource>
    
    
  <Observation>
  <id value="ID30-respiratoryrate"/>
    <text>
      <status value="generated"/>
      <div xmlns="http://www.w3.org/1999/xhtml">1998-08-05: respiratory_rate = 18.0 {breaths}/min</div>
    </text>
    <code>
      <coding>
        <system value="http://loinc.org"/>
        <code value="9279-1"/>
        <display value="respiratory_rate"/>
      </coding>
    </code>
    <valueQuantity>
      <value value="18.0"/>
      <unit value="{breaths}/min"/>
      <system value="http://unitsofmeasure.org" />
      <code value="{breaths}/min"/>
    </valueQuantity>
    
    <effectiveDateTime value="1998-08-05"/>
    <status value="final"/>
    <reliability value="ok"/>
    <subject>
      <reference value="Patient/ID629528"/>
    </subject>
    <encounter>
      <reference value="Encounter/ID30"/>
    </encounter>
    
  </Observation>
  
  </resource>
  <request>
    <method value="PUT"/>
    <url value="Observation/ID30-respiratoryrate"/>
  </request>
</entry>
<entry>
  <resource>
    
    
  <Observation>
  <id value="ID30-temperature"/>
    <text>
      <status value="generated"/>
      <div xmlns="http://www.w3.org/1999/xhtml">1998-08-05: temperature = 36.55556 Cel</div>
    </text>
    <code>
      <coding>
        <system value="http://loinc.org"/>
        <code value="8310-5"/>
        <display value="temperature"/>
      </coding>
    </code>
    <valueQuantity>
      <value value="36.55556"/>
      <unit value="Cel"/>
      <system value="http://unitsofmeasure.org" />
      <code value="Cel"/>
    </valueQuantity>
    
    <effectiveDateTime value="1998-08-05"/>
    <status value="final"/>
    <reliability value="ok"/>
    <subject>
      <reference value="Patient/ID629528"/>
    </subject>
    <encounter>
      <reference value="Encounter/ID30"/>
    </encounter>
    
  </Observation>
  
  </resource>
  <request>
    <method value="PUT"/>
    <url value="Observation/ID30-temperature"/>
  </request>
</entry>
<entry>
  <resource>
    
    
  <Observation>
  <id value="ID30-weight"/>
    <text>
      <status value="generated"/>
      <div xmlns="http://www.w3.org/1999/xhtml">1998-08-05: weight = 35.24413 kg</div>
    </text>
    <code>
      <coding>
        <system value="http://loinc.org"/>
        <code value="3141-9"/>
        <display value="weight"/>
      </coding>
    </code>
    <valueQuantity>
      <value value="35.24413"/>
      <unit value="kg"/>
      <system value="http://unitsofmeasure.org" />
      <code value="kg"/>
    </valueQuantity>
    
    <effectiveDateTime value="1998-08-05"/>
    <status value="final"/>
    <reliability value="ok"/>
    <subject>
      <reference value="Patient/ID629528"/>
    </subject>
    <encounter>
      <reference value="Encounter/ID30"/>
    </encounter>
    
  </Observation>
  
  </resource>
  <request>
    <method value="PUT"/>
    <url value="Observation/ID30-weight"/>
  </request>
</entry>
<entry>
  <resource>
    
    
  <Observation>
  <id value="ID30-bmi"/>
    <text>
      <status value="generated"/>
      <div xmlns="http://www.w3.org/1999/xhtml">1998-08-05: bmi = 12.7 kg/m2</div>
    </text>
    <code>
      <coding>
        <system value="http://loinc.org"/>
        <code value="39156-5"/>
        <display value="bmi"/>
      </coding>
    </code>
    <valueQuantity>
      <value value="12.7"/>
      <unit value="kg/m2"/>
      <system value="http://unitsofmeasure.org" />
      <code value="kg/m2"/>
    </valueQuantity>
    
    <effectiveDateTime value="1998-08-05"/>
    <status value="final"/>
    <reliability value="ok"/>
    <subject>
      <reference value="Patient/ID629528"/>
    </subject>
    <encounter>
      <reference value="Encounter/ID30"/>
    </encounter>
    
  </Observation>
  
  </resource>
  <request>
    <method value="PUT"/>
    <url value="Observation/ID30-bmi"/>
  </request>
</entry>
<entry>
  <resource>
    
    
  <Observation>
  <id value="ID30-oxygensaturation"/>
    <text>
      <status value="generated"/>
      <div xmlns="http://www.w3.org/1999/xhtml">1998-08-05: oxygen_saturation = 99.0 %{HemoglobinSaturation}</div>
    </text>
    <code>
      <coding>
        <system value="http://loinc.org"/>
        <code value="2710-2"/>
        <display value="oxygen_saturation"/>
      </coding>
    </code>
    <valueQuantity>
      <value value="99.0"/>
      <unit value="%{HemoglobinSaturation}"/>
      <system value="http://unitsofmeasure.org" />
      <code value="%{HemoglobinSaturation}"/>
    </valueQuantity>
    
    <effectiveDateTime value="1998-08-05"/>
    <status value="final"/>
    <reliability value="ok"/>
    <subject>
      <reference value="Patient/ID629528"/>
    </subject>
    <encounter>
      <reference value="Encounter/ID30"/>
    </encounter>
    
  </Observation>
  
  </resource>
  <request>
    <method value="PUT"/>
    <url value="Observation/ID30-oxygensaturation"/>
  </request>
</entry>
<entry>
  <resource>
    
    
  <Observation>
  <id value="ID31-height"/>
    <text>
      <status value="generated"/>
      <div xmlns="http://www.w3.org/1999/xhtml">1998-08-06: height = 166.878 cm</div>
    </text>
    <code>
      <coding>
        <system value="http://loinc.org"/>
        <code value="8302-2"/>
        <display value="height"/>
      </coding>
    </code>
    <valueQuantity>
      <value value="166.878"/>
      <unit value="cm"/>
      <system value="http://unitsofmeasure.org" />
      <code value="cm"/>
    </valueQuantity>
    
    <effectiveDateTime value="1998-08-06"/>
    <status value="final"/>
    <reliability value="ok"/>
    <subject>
      <reference value="Patient/ID629528"/>
    </subject>
    <encounter>
      <reference value="Encounter/ID31"/>
    </encounter>
    
  </Observation>
  
  </resource>
  <request>
    <method value="PUT"/>
    <url value="Observation/ID31-height"/>
  </request>
</entry>
<entry>
  <resource>
    
    
  <Observation>
  <id value="ID31-heartrate"/>
    <text>
      <status value="generated"/>
      <div xmlns="http://www.w3.org/1999/xhtml">1998-08-06: heart_rate = 69.0 {beats}/min</div>
    </text>
    <code>
      <coding>
        <system value="http://loinc.org"/>
        <code value="8867-4"/>
        <display value="heart_rate"/>
      </coding>
    </code>
    <valueQuantity>
      <value value="69.0"/>
      <unit value="{beats}/min"/>
      <system value="http://unitsofmeasure.org" />
      <code value="{beats}/min"/>
    </valueQuantity>
    
    <effectiveDateTime value="1998-08-06"/>
    <status value="final"/>
    <reliability value="ok"/>
    <subject>
      <reference value="Patient/ID629528"/>
    </subject>
    <encounter>
      <reference value="Encounter/ID31"/>
    </encounter>
    
  </Observation>
  
  </resource>
  <request>
    <method value="PUT"/>
    <url value="Observation/ID31-heartrate"/>
  </request>
</entry>
<entry>
  <resource>
    
    
  <Observation>
  <id value="ID31-respiratoryrate"/>
    <text>
      <status value="generated"/>
      <div xmlns="http://www.w3.org/1999/xhtml">1998-08-06: respiratory_rate = 18.0 {breaths}/min</div>
    </text>
    <code>
      <coding>
        <system value="http://loinc.org"/>
        <code value="9279-1"/>
        <display value="respiratory_rate"/>
      </coding>
    </code>
    <valueQuantity>
      <value value="18.0"/>
      <unit value="{breaths}/min"/>
      <system value="http://unitsofmeasure.org" />
      <code value="{breaths}/min"/>
    </valueQuantity>
    
    <effectiveDateTime value="1998-08-06"/>
    <status value="final"/>
    <reliability value="ok"/>
    <subject>
      <reference value="Patient/ID629528"/>
    </subject>
    <encounter>
      <reference value="Encounter/ID31"/>
    </encounter>
    
  </Observation>
  
  </resource>
  <request>
    <method value="PUT"/>
    <url value="Observation/ID31-respiratoryrate"/>
  </request>
</entry>
<entry>
  <resource>
    
    
  <Observation>
  <id value="ID31-temperature"/>
    <text>
      <status value="generated"/>
      <div xmlns="http://www.w3.org/1999/xhtml">1998-08-06: temperature = 36.55556 Cel</div>
    </text>
    <code>
      <coding>
        <system value="http://loinc.org"/>
        <code value="8310-5"/>
        <display value="temperature"/>
      </coding>
    </code>
    <valueQuantity>
      <value value="36.55556"/>
      <unit value="Cel"/>
      <system value="http://unitsofmeasure.org" />
      <code value="Cel"/>
    </valueQuantity>
    
    <effectiveDateTime value="1998-08-06"/>
    <status value="final"/>
    <reliability value="ok"/>
    <subject>
      <reference value="Patient/ID629528"/>
    </subject>
    <encounter>
      <reference value="Encounter/ID31"/>
    </encounter>
    
  </Observation>
  
  </resource>
  <request>
    <method value="PUT"/>
    <url value="Observation/ID31-temperature"/>
  </request>
</entry>
<entry>
  <resource>
    
    
  <Observation>
  <id value="ID31-weight"/>
    <text>
      <status value="generated"/>
      <div xmlns="http://www.w3.org/1999/xhtml">1998-08-06: weight = 39.68933 kg</div>
    </text>
    <code>
      <coding>
        <system value="http://loinc.org"/>
        <code value="3141-9"/>
        <display value="weight"/>
      </coding>
    </code>
    <valueQuantity>
      <value value="39.68933"/>
      <unit value="kg"/>
      <system value="http://unitsofmeasure.org" />
      <code value="kg"/>
    </valueQuantity>
    
    <effectiveDateTime value="1998-08-06"/>
    <status value="final"/>
    <reliability value="ok"/>
    <subject>
      <reference value="Patient/ID629528"/>
    </subject>
    <encounter>
      <reference value="Encounter/ID31"/>
    </encounter>
    
  </Observation>
  
  </resource>
  <request>
    <method value="PUT"/>
    <url value="Observation/ID31-weight"/>
  </request>
</entry>
<entry>
  <resource>
    
    
  <Observation>
  <id value="ID31-bmi"/>
    <text>
      <status value="generated"/>
      <div xmlns="http://www.w3.org/1999/xhtml">1998-08-06: bmi = 14.2 kg/m2</div>
    </text>
    <code>
      <coding>
        <system value="http://loinc.org"/>
        <code value="39156-5"/>
        <display value="bmi"/>
      </coding>
    </code>
    <valueQuantity>
      <value value="14.2"/>
      <unit value="kg/m2"/>
      <system value="http://unitsofmeasure.org" />
      <code value="kg/m2"/>
    </valueQuantity>
    
    <effectiveDateTime value="1998-08-06"/>
    <status value="final"/>
    <reliability value="ok"/>
    <subject>
      <reference value="Patient/ID629528"/>
    </subject>
    <encounter>
      <reference value="Encounter/ID31"/>
    </encounter>
    
  </Observation>
  
  </resource>
  <request>
    <method value="PUT"/>
    <url value="Observation/ID31-bmi"/>
  </request>
</entry>
<entry>
  <resource>
    
    
  <Observation>
  <id value="ID31-oxygensaturation"/>
    <text>
      <status value="generated"/>
      <div xmlns="http://www.w3.org/1999/xhtml">1998-08-06: oxygen_saturation = 99.0 %{HemoglobinSaturation}</div>
    </text>
    <code>
      <coding>
        <system value="http://loinc.org"/>
        <code value="2710-2"/>
        <display value="oxygen_saturation"/>
      </coding>
    </code>
    <valueQuantity>
      <value value="99.0"/>
      <unit value="%{HemoglobinSaturation}"/>
      <system value="http://unitsofmeasure.org" />
      <code value="%{HemoglobinSaturation}"/>
    </valueQuantity>
    
    <effectiveDateTime value="1998-08-06"/>
    <status value="final"/>
    <reliability value="ok"/>
    <subject>
      <reference value="Patient/ID629528"/>
    </subject>
    <encounter>
      <reference value="Encounter/ID31"/>
    </encounter>
    
  </Observation>
  
  </resource>
  <request>
    <method value="PUT"/>
    <url value="Observation/ID31-oxygensaturation"/>
  </request>
</entry>
<entry>
  <resource>
    
    
  <Observation>
  <id value="ID32-height"/>
    <text>
      <status value="generated"/>
      <div xmlns="http://www.w3.org/1999/xhtml">1998-12-02: height = 166.878 cm</div>
    </text>
    <code>
      <coding>
        <system value="http://loinc.org"/>
        <code value="8302-2"/>
        <display value="height"/>
      </coding>
    </code>
    <valueQuantity>
      <value value="166.878"/>
      <unit value="cm"/>
      <system value="http://unitsofmeasure.org" />
      <code value="cm"/>
    </valueQuantity>
    
    <effectiveDateTime value="1998-12-02"/>
    <status value="final"/>
    <reliability value="ok"/>
    <subject>
      <reference value="Patient/ID629528"/>
    </subject>
    <encounter>
      <reference value="Encounter/ID32"/>
    </encounter>
    
  </Observation>
  
  </resource>
  <request>
    <method value="PUT"/>
    <url value="Observation/ID32-height"/>
  </request>
</entry>
<entry>
  <resource>
    
    
  <Observation>
  <id value="ID32-heartrate"/>
    <text>
      <status value="generated"/>
      <div xmlns="http://www.w3.org/1999/xhtml">1998-12-02: heart_rate = 71.0 {beats}/min</div>
    </text>
    <code>
      <coding>
        <system value="http://loinc.org"/>
        <code value="8867-4"/>
        <display value="heart_rate"/>
      </coding>
    </code>
    <valueQuantity>
      <value value="71.0"/>
      <unit value="{beats}/min"/>
      <system value="http://unitsofmeasure.org" />
      <code value="{beats}/min"/>
    </valueQuantity>
    
    <effectiveDateTime value="1998-12-02"/>
    <status value="final"/>
    <reliability value="ok"/>
    <subject>
      <reference value="Patient/ID629528"/>
    </subject>
    <encounter>
      <reference value="Encounter/ID32"/>
    </encounter>
    
  </Observation>
  
  </resource>
  <request>
    <method value="PUT"/>
    <url value="Observation/ID32-heartrate"/>
  </request>
</entry>
<entry>
  <resource>
    
    
  <Observation>
  <id value="ID32-respiratoryrate"/>
    <text>
      <status value="generated"/>
      <div xmlns="http://www.w3.org/1999/xhtml">1998-12-02: respiratory_rate = 18.0 {breaths}/min</div>
    </text>
    <code>
      <coding>
        <system value="http://loinc.org"/>
        <code value="9279-1"/>
        <display value="respiratory_rate"/>
      </coding>
    </code>
    <valueQuantity>
      <value value="18.0"/>
      <unit value="{breaths}/min"/>
      <system value="http://unitsofmeasure.org" />
      <code value="{breaths}/min"/>
    </valueQuantity>
    
    <effectiveDateTime value="1998-12-02"/>
    <status value="final"/>
    <reliability value="ok"/>
    <subject>
      <reference value="Patient/ID629528"/>
    </subject>
    <encounter>
      <reference value="Encounter/ID32"/>
    </encounter>
    
  </Observation>
  
  </resource>
  <request>
    <method value="PUT"/>
    <url value="Observation/ID32-respiratoryrate"/>
  </request>
</entry>
<entry>
  <resource>
    
    
  <Observation>
  <id value="ID32-temperature"/>
    <text>
      <status value="generated"/>
      <div xmlns="http://www.w3.org/1999/xhtml">1998-12-02: temperature = 36.55556 Cel</div>
    </text>
    <code>
      <coding>
        <system value="http://loinc.org"/>
        <code value="8310-5"/>
        <display value="temperature"/>
      </coding>
    </code>
    <valueQuantity>
      <value value="36.55556"/>
      <unit value="Cel"/>
      <system value="http://unitsofmeasure.org" />
      <code value="Cel"/>
    </valueQuantity>
    
    <effectiveDateTime value="1998-12-02"/>
    <status value="final"/>
    <reliability value="ok"/>
    <subject>
      <reference value="Patient/ID629528"/>
    </subject>
    <encounter>
      <reference value="Encounter/ID32"/>
    </encounter>
    
  </Observation>
  
  </resource>
  <request>
    <method value="PUT"/>
    <url value="Observation/ID32-temperature"/>
  </request>
</entry>
<entry>
  <resource>
    
    
  <Observation>
  <id value="ID32-weight"/>
    <text>
      <status value="generated"/>
      <div xmlns="http://www.w3.org/1999/xhtml">1998-12-02: weight = 32.97617 kg</div>
    </text>
    <code>
      <coding>
        <system value="http://loinc.org"/>
        <code value="3141-9"/>
        <display value="weight"/>
      </coding>
    </code>
    <valueQuantity>
      <value value="32.97617"/>
      <unit value="kg"/>
      <system value="http://unitsofmeasure.org" />
      <code value="kg"/>
    </valueQuantity>
    
    <effectiveDateTime value="1998-12-02"/>
    <status value="final"/>
    <reliability value="ok"/>
    <subject>
      <reference value="Patient/ID629528"/>
    </subject>
    <encounter>
      <reference value="Encounter/ID32"/>
    </encounter>
    
  </Observation>
  
  </resource>
  <request>
    <method value="PUT"/>
    <url value="Observation/ID32-weight"/>
  </request>
</entry>
<entry>
  <resource>
    
    
  <Observation>
  <id value="ID32-bmi"/>
    <text>
      <status value="generated"/>
      <div xmlns="http://www.w3.org/1999/xhtml">1998-12-02: bmi = 11.8 kg/m2</div>
    </text>
    <code>
      <coding>
        <system value="http://loinc.org"/>
        <code value="39156-5"/>
        <display value="bmi"/>
      </coding>
    </code>
    <valueQuantity>
      <value value="11.8"/>
      <unit value="kg/m2"/>
      <system value="http://unitsofmeasure.org" />
      <code value="kg/m2"/>
    </valueQuantity>
    
    <effectiveDateTime value="1998-12-02"/>
    <status value="final"/>
    <reliability value="ok"/>
    <subject>
      <reference value="Patient/ID629528"/>
    </subject>
    <encounter>
      <reference value="Encounter/ID32"/>
    </encounter>
    
  </Observation>
  
  </resource>
  <request>
    <method value="PUT"/>
    <url value="Observation/ID32-bmi"/>
  </request>
</entry>
<entry>
  <resource>
    
    
  <Observation>
  <id value="ID32-oxygensaturation"/>
    <text>
      <status value="generated"/>
      <div xmlns="http://www.w3.org/1999/xhtml">1998-12-02: oxygen_saturation = 99.0 %{HemoglobinSaturation}</div>
    </text>
    <code>
      <coding>
        <system value="http://loinc.org"/>
        <code value="2710-2"/>
        <display value="oxygen_saturation"/>
      </coding>
    </code>
    <valueQuantity>
      <value value="99.0"/>
      <unit value="%{HemoglobinSaturation}"/>
      <system value="http://unitsofmeasure.org" />
      <code value="%{HemoglobinSaturation}"/>
    </valueQuantity>
    
    <effectiveDateTime value="1998-12-02"/>
    <status value="final"/>
    <reliability value="ok"/>
    <subject>
      <reference value="Patient/ID629528"/>
    </subject>
    <encounter>
      <reference value="Encounter/ID32"/>
    </encounter>
    
  </Observation>
  
  </resource>
  <request>
    <method value="PUT"/>
    <url value="Observation/ID32-oxygensaturation"/>
  </request>
</entry>
<entry>
  <resource>
    
    
  <Observation>
  <id value="ID33-height"/>
    <text>
      <status value="generated"/>
      <div xmlns="http://www.w3.org/1999/xhtml">1998-12-08: height = 166.878 cm</div>
    </text>
    <code>
      <coding>
        <system value="http://loinc.org"/>
        <code value="8302-2"/>
        <display value="height"/>
      </coding>
    </code>
    <valueQuantity>
      <value value="166.878"/>
      <unit value="cm"/>
      <system value="http://unitsofmeasure.org" />
      <code value="cm"/>
    </valueQuantity>
    
    <effectiveDateTime value="1998-12-08"/>
    <status value="final"/>
    <reliability value="ok"/>
    <subject>
      <reference value="Patient/ID629528"/>
    </subject>
    <encounter>
      <reference value="Encounter/ID33"/>
    </encounter>
    
  </Observation>
  
  </resource>
  <request>
    <method value="PUT"/>
    <url value="Observation/ID33-height"/>
  </request>
</entry>
<entry>
  <resource>
    
    
  <Observation>
  <id value="ID33-heartrate"/>
    <text>
      <status value="generated"/>
      <div xmlns="http://www.w3.org/1999/xhtml">1998-12-08: heart_rate = 74.0 {beats}/min</div>
    </text>
    <code>
      <coding>
        <system value="http://loinc.org"/>
        <code value="8867-4"/>
        <display value="heart_rate"/>
      </coding>
    </code>
    <valueQuantity>
      <value value="74.0"/>
      <unit value="{beats}/min"/>
      <system value="http://unitsofmeasure.org" />
      <code value="{beats}/min"/>
    </valueQuantity>
    
    <effectiveDateTime value="1998-12-08"/>
    <status value="final"/>
    <reliability value="ok"/>
    <subject>
      <reference value="Patient/ID629528"/>
    </subject>
    <encounter>
      <reference value="Encounter/ID33"/>
    </encounter>
    
  </Observation>
  
  </resource>
  <request>
    <method value="PUT"/>
    <url value="Observation/ID33-heartrate"/>
  </request>
</entry>
<entry>
  <resource>
    
    
  <Observation>
  <id value="ID33-respiratoryrate"/>
    <text>
      <status value="generated"/>
      <div xmlns="http://www.w3.org/1999/xhtml">1998-12-08: respiratory_rate = 18.0 {breaths}/min</div>
    </text>
    <code>
      <coding>
        <system value="http://loinc.org"/>
        <code value="9279-1"/>
        <display value="respiratory_rate"/>
      </coding>
    </code>
    <valueQuantity>
      <value value="18.0"/>
      <unit value="{breaths}/min"/>
      <system value="http://unitsofmeasure.org" />
      <code value="{breaths}/min"/>
    </valueQuantity>
    
    <effectiveDateTime value="1998-12-08"/>
    <status value="final"/>
    <reliability value="ok"/>
    <subject>
      <reference value="Patient/ID629528"/>
    </subject>
    <encounter>
      <reference value="Encounter/ID33"/>
    </encounter>
    
  </Observation>
  
  </resource>
  <request>
    <method value="PUT"/>
    <url value="Observation/ID33-respiratoryrate"/>
  </request>
</entry>
<entry>
  <resource>
    
    
  <Observation>
  <id value="ID33-temperature"/>
    <text>
      <status value="generated"/>
      <div xmlns="http://www.w3.org/1999/xhtml">1998-12-08: temperature = 36.55556 Cel</div>
    </text>
    <code>
      <coding>
        <system value="http://loinc.org"/>
        <code value="8310-5"/>
        <display value="temperature"/>
      </coding>
    </code>
    <valueQuantity>
      <value value="36.55556"/>
      <unit value="Cel"/>
      <system value="http://unitsofmeasure.org" />
      <code value="Cel"/>
    </valueQuantity>
    
    <effectiveDateTime value="1998-12-08"/>
    <status value="final"/>
    <reliability value="ok"/>
    <subject>
      <reference value="Patient/ID629528"/>
    </subject>
    <encounter>
      <reference value="Encounter/ID33"/>
    </encounter>
    
  </Observation>
  
  </resource>
  <request>
    <method value="PUT"/>
    <url value="Observation/ID33-temperature"/>
  </request>
</entry>
<entry>
  <resource>
    
    
  <Observation>
  <id value="ID33-weight"/>
    <text>
      <status value="generated"/>
      <div xmlns="http://www.w3.org/1999/xhtml">1998-12-08: weight = 39.14502 kg</div>
    </text>
    <code>
      <coding>
        <system value="http://loinc.org"/>
        <code value="3141-9"/>
        <display value="weight"/>
      </coding>
    </code>
    <valueQuantity>
      <value value="39.14502"/>
      <unit value="kg"/>
      <system value="http://unitsofmeasure.org" />
      <code value="kg"/>
    </valueQuantity>
    
    <effectiveDateTime value="1998-12-08"/>
    <status value="final"/>
    <reliability value="ok"/>
    <subject>
      <reference value="Patient/ID629528"/>
    </subject>
    <encounter>
      <reference value="Encounter/ID33"/>
    </encounter>
    
  </Observation>
  
  </resource>
  <request>
    <method value="PUT"/>
    <url value="Observation/ID33-weight"/>
  </request>
</entry>
<entry>
  <resource>
    
    
  <Observation>
  <id value="ID33-bmi"/>
    <text>
      <status value="generated"/>
      <div xmlns="http://www.w3.org/1999/xhtml">1998-12-08: bmi = 14.1 kg/m2</div>
    </text>
    <code>
      <coding>
        <system value="http://loinc.org"/>
        <code value="39156-5"/>
        <display value="bmi"/>
      </coding>
    </code>
    <valueQuantity>
      <value value="14.1"/>
      <unit value="kg/m2"/>
      <system value="http://unitsofmeasure.org" />
      <code value="kg/m2"/>
    </valueQuantity>
    
    <effectiveDateTime value="1998-12-08"/>
    <status value="final"/>
    <reliability value="ok"/>
    <subject>
      <reference value="Patient/ID629528"/>
    </subject>
    <encounter>
      <reference value="Encounter/ID33"/>
    </encounter>
    
  </Observation>
  
  </resource>
  <request>
    <method value="PUT"/>
    <url value="Observation/ID33-bmi"/>
  </request>
</entry>
<entry>
  <resource>
    
    
  <Observation>
  <id value="ID33-oxygensaturation"/>
    <text>
      <status value="generated"/>
      <div xmlns="http://www.w3.org/1999/xhtml">1998-12-08: oxygen_saturation = 99.0 %{HemoglobinSaturation}</div>
    </text>
    <code>
      <coding>
        <system value="http://loinc.org"/>
        <code value="2710-2"/>
        <display value="oxygen_saturation"/>
      </coding>
    </code>
    <valueQuantity>
      <value value="99.0"/>
      <unit value="%{HemoglobinSaturation}"/>
      <system value="http://unitsofmeasure.org" />
      <code value="%{HemoglobinSaturation}"/>
    </valueQuantity>
    
    <effectiveDateTime value="1998-12-08"/>
    <status value="final"/>
    <reliability value="ok"/>
    <subject>
      <reference value="Patient/ID629528"/>
    </subject>
    <encounter>
      <reference value="Encounter/ID33"/>
    </encounter>
    
  </Observation>
  
  </resource>
  <request>
    <method value="PUT"/>
    <url value="Observation/ID33-oxygensaturation"/>
  </request>
</entry>
<entry>
  <resource>
    
    
  <Observation>
  <id value="ID34-height"/>
    <text>
      <status value="generated"/>
      <div xmlns="http://www.w3.org/1999/xhtml">1998-12-09: height = 166.624 cm</div>
    </text>
    <code>
      <coding>
        <system value="http://loinc.org"/>
        <code value="8302-2"/>
        <display value="height"/>
      </coding>
    </code>
    <valueQuantity>
      <value value="166.624"/>
      <unit value="cm"/>
      <system value="http://unitsofmeasure.org" />
      <code value="cm"/>
    </valueQuantity>
    
    <effectiveDateTime value="1998-12-09"/>
    <status value="final"/>
    <reliability value="ok"/>
    <subject>
      <reference value="Patient/ID629528"/>
    </subject>
    <encounter>
      <reference value="Encounter/ID34"/>
    </encounter>
    
  </Observation>
  
  </resource>
  <request>
    <method value="PUT"/>
    <url value="Observation/ID34-height"/>
  </request>
</entry>
<entry>
  <resource>
    
    
  <Observation>
  <id value="ID34-heartrate"/>
    <text>
      <status value="generated"/>
      <div xmlns="http://www.w3.org/1999/xhtml">1998-12-09: heart_rate = 75.0 {beats}/min</div>
    </text>
    <code>
      <coding>
        <system value="http://loinc.org"/>
        <code value="8867-4"/>
        <display value="heart_rate"/>
      </coding>
    </code>
    <valueQuantity>
      <value value="75.0"/>
      <unit value="{beats}/min"/>
      <system value="http://unitsofmeasure.org" />
      <code value="{beats}/min"/>
    </valueQuantity>
    
    <effectiveDateTime value="1998-12-09"/>
    <status value="final"/>
    <reliability value="ok"/>
    <subject>
      <reference value="Patient/ID629528"/>
    </subject>
    <encounter>
      <reference value="Encounter/ID34"/>
    </encounter>
    
  </Observation>
  
  </resource>
  <request>
    <method value="PUT"/>
    <url value="Observation/ID34-heartrate"/>
  </request>
</entry>
<entry>
  <resource>
    
    
  <Observation>
  <id value="ID34-respiratoryrate"/>
    <text>
      <status value="generated"/>
      <div xmlns="http://www.w3.org/1999/xhtml">1998-12-09: respiratory_rate = 18.0 {breaths}/min</div>
    </text>
    <code>
      <coding>
        <system value="http://loinc.org"/>
        <code value="9279-1"/>
        <display value="respiratory_rate"/>
      </coding>
    </code>
    <valueQuantity>
      <value value="18.0"/>
      <unit value="{breaths}/min"/>
      <system value="http://unitsofmeasure.org" />
      <code value="{breaths}/min"/>
    </valueQuantity>
    
    <effectiveDateTime value="1998-12-09"/>
    <status value="final"/>
    <reliability value="ok"/>
    <subject>
      <reference value="Patient/ID629528"/>
    </subject>
    <encounter>
      <reference value="Encounter/ID34"/>
    </encounter>
    
  </Observation>
  
  </resource>
  <request>
    <method value="PUT"/>
    <url value="Observation/ID34-respiratoryrate"/>
  </request>
</entry>
<entry>
  <resource>
    
    
  <Observation>
  <id value="ID34-temperature"/>
    <text>
      <status value="generated"/>
      <div xmlns="http://www.w3.org/1999/xhtml">1998-12-09: temperature = 36.55556 Cel</div>
    </text>
    <code>
      <coding>
        <system value="http://loinc.org"/>
        <code value="8310-5"/>
        <display value="temperature"/>
      </coding>
    </code>
    <valueQuantity>
      <value value="36.55556"/>
      <unit value="Cel"/>
      <system value="http://unitsofmeasure.org" />
      <code value="Cel"/>
    </valueQuantity>
    
    <effectiveDateTime value="1998-12-09"/>
    <status value="final"/>
    <reliability value="ok"/>
    <subject>
      <reference value="Patient/ID629528"/>
    </subject>
    <encounter>
      <reference value="Encounter/ID34"/>
    </encounter>
    
  </Observation>
  
  </resource>
  <request>
    <method value="PUT"/>
    <url value="Observation/ID34-temperature"/>
  </request>
</entry>
<entry>
  <resource>
    
    
  <Observation>
  <id value="ID34-weight"/>
    <text>
      <status value="generated"/>
      <div xmlns="http://www.w3.org/1999/xhtml">1998-12-09: weight = 39.19038 kg</div>
    </text>
    <code>
      <coding>
        <system value="http://loinc.org"/>
        <code value="3141-9"/>
        <display value="weight"/>
      </coding>
    </code>
    <valueQuantity>
      <value value="39.19038"/>
      <unit value="kg"/>
      <system value="http://unitsofmeasure.org" />
      <code value="kg"/>
    </valueQuantity>
    
    <effectiveDateTime value="1998-12-09"/>
    <status value="final"/>
    <reliability value="ok"/>
    <subject>
      <reference value="Patient/ID629528"/>
    </subject>
    <encounter>
      <reference value="Encounter/ID34"/>
    </encounter>
    
  </Observation>
  
  </resource>
  <request>
    <method value="PUT"/>
    <url value="Observation/ID34-weight"/>
  </request>
</entry>
<entry>
  <resource>
    
    
  <Observation>
  <id value="ID34-bmi"/>
    <text>
      <status value="generated"/>
      <div xmlns="http://www.w3.org/1999/xhtml">1998-12-09: bmi = 14.1 kg/m2</div>
    </text>
    <code>
      <coding>
        <system value="http://loinc.org"/>
        <code value="39156-5"/>
        <display value="bmi"/>
      </coding>
    </code>
    <valueQuantity>
      <value value="14.1"/>
      <unit value="kg/m2"/>
      <system value="http://unitsofmeasure.org" />
      <code value="kg/m2"/>
    </valueQuantity>
    
    <effectiveDateTime value="1998-12-09"/>
    <status value="final"/>
    <reliability value="ok"/>
    <subject>
      <reference value="Patient/ID629528"/>
    </subject>
    <encounter>
      <reference value="Encounter/ID34"/>
    </encounter>
    
  </Observation>
  
  </resource>
  <request>
    <method value="PUT"/>
    <url value="Observation/ID34-bmi"/>
  </request>
</entry>
<entry>
  <resource>
    
    
  <Observation>
  <id value="ID34-oxygensaturation"/>
    <text>
      <status value="generated"/>
      <div xmlns="http://www.w3.org/1999/xhtml">1998-12-09: oxygen_saturation = 99.0 %{HemoglobinSaturation}</div>
    </text>
    <code>
      <coding>
        <system value="http://loinc.org"/>
        <code value="2710-2"/>
        <display value="oxygen_saturation"/>
      </coding>
    </code>
    <valueQuantity>
      <value value="99.0"/>
      <unit value="%{HemoglobinSaturation}"/>
      <system value="http://unitsofmeasure.org" />
      <code value="%{HemoglobinSaturation}"/>
    </valueQuantity>
    
    <effectiveDateTime value="1998-12-09"/>
    <status value="final"/>
    <reliability value="ok"/>
    <subject>
      <reference value="Patient/ID629528"/>
    </subject>
    <encounter>
      <reference value="Encounter/ID34"/>
    </encounter>
    
  </Observation>
  
  </resource>
  <request>
    <method value="PUT"/>
    <url value="Observation/ID34-oxygensaturation"/>
  </request>
</entry>
<entry>
  <resource>
    
    
  <Observation>
  <id value="ID35-height"/>
    <text>
      <status value="generated"/>
      <div xmlns="http://www.w3.org/1999/xhtml">2000-01-11: height = 167.132 cm</div>
    </text>
    <code>
      <coding>
        <system value="http://loinc.org"/>
        <code value="8302-2"/>
        <display value="height"/>
      </coding>
    </code>
    <valueQuantity>
      <value value="167.132"/>
      <unit value="cm"/>
      <system value="http://unitsofmeasure.org" />
      <code value="cm"/>
    </valueQuantity>
    
    <effectiveDateTime value="2000-01-11"/>
    <status value="final"/>
    <reliability value="ok"/>
    <subject>
      <reference value="Patient/ID629528"/>
    </subject>
    <encounter>
      <reference value="Encounter/ID35"/>
    </encounter>
    
  </Observation>
  
  </resource>
  <request>
    <method value="PUT"/>
    <url value="Observation/ID35-height"/>
  </request>
</entry>
<entry>
  <resource>
    
    
  <Observation>
  <id value="ID35-heartrate"/>
    <text>
      <status value="generated"/>
      <div xmlns="http://www.w3.org/1999/xhtml">2000-01-11: heart_rate = 70.0 {beats}/min</div>
    </text>
    <code>
      <coding>
        <system value="http://loinc.org"/>
        <code value="8867-4"/>
        <display value="heart_rate"/>
      </coding>
    </code>
    <valueQuantity>
      <value value="70.0"/>
      <unit value="{beats}/min"/>
      <system value="http://unitsofmeasure.org" />
      <code value="{beats}/min"/>
    </valueQuantity>
    
    <effectiveDateTime value="2000-01-11"/>
    <status value="final"/>
    <reliability value="ok"/>
    <subject>
      <reference value="Patient/ID629528"/>
    </subject>
    <encounter>
      <reference value="Encounter/ID35"/>
    </encounter>
    
  </Observation>
  
  </resource>
  <request>
    <method value="PUT"/>
    <url value="Observation/ID35-heartrate"/>
  </request>
</entry>
<entry>
  <resource>
    
    
  <Observation>
  <id value="ID35-respiratoryrate"/>
    <text>
      <status value="generated"/>
      <div xmlns="http://www.w3.org/1999/xhtml">2000-01-11: respiratory_rate = 17.0 {breaths}/min</div>
    </text>
    <code>
      <coding>
        <system value="http://loinc.org"/>
        <code value="9279-1"/>
        <display value="respiratory_rate"/>
      </coding>
    </code>
    <valueQuantity>
      <value value="17.0"/>
      <unit value="{breaths}/min"/>
      <system value="http://unitsofmeasure.org" />
      <code value="{breaths}/min"/>
    </valueQuantity>
    
    <effectiveDateTime value="2000-01-11"/>
    <status value="final"/>
    <reliability value="ok"/>
    <subject>
      <reference value="Patient/ID629528"/>
    </subject>
    <encounter>
      <reference value="Encounter/ID35"/>
    </encounter>
    
  </Observation>
  
  </resource>
  <request>
    <method value="PUT"/>
    <url value="Observation/ID35-respiratoryrate"/>
  </request>
</entry>
<entry>
  <resource>
    
    
  <Observation>
  <id value="ID35-temperature"/>
    <text>
      <status value="generated"/>
      <div xmlns="http://www.w3.org/1999/xhtml">2000-01-11: temperature = 36.61111 Cel</div>
    </text>
    <code>
      <coding>
        <system value="http://loinc.org"/>
        <code value="8310-5"/>
        <display value="temperature"/>
      </coding>
    </code>
    <valueQuantity>
      <value value="36.61111"/>
      <unit value="Cel"/>
      <system value="http://unitsofmeasure.org" />
      <code value="Cel"/>
    </valueQuantity>
    
    <effectiveDateTime value="2000-01-11"/>
    <status value="final"/>
    <reliability value="ok"/>
    <subject>
      <reference value="Patient/ID629528"/>
    </subject>
    <encounter>
      <reference value="Encounter/ID35"/>
    </encounter>
    
  </Observation>
  
  </resource>
  <request>
    <method value="PUT"/>
    <url value="Observation/ID35-temperature"/>
  </request>
</entry>
<entry>
  <resource>
    
    
  <Observation>
  <id value="ID35-weight"/>
    <text>
      <status value="generated"/>
      <div xmlns="http://www.w3.org/1999/xhtml">2000-01-11: weight = 35.01733 kg</div>
    </text>
    <code>
      <coding>
        <system value="http://loinc.org"/>
        <code value="3141-9"/>
        <display value="weight"/>
      </coding>
    </code>
    <valueQuantity>
      <value value="35.01733"/>
      <unit value="kg"/>
      <system value="http://unitsofmeasure.org" />
      <code value="kg"/>
    </valueQuantity>
    
    <effectiveDateTime value="2000-01-11"/>
    <status value="final"/>
    <reliability value="ok"/>
    <subject>
      <reference value="Patient/ID629528"/>
    </subject>
    <encounter>
      <reference value="Encounter/ID35"/>
    </encounter>
    
  </Observation>
  
  </resource>
  <request>
    <method value="PUT"/>
    <url value="Observation/ID35-weight"/>
  </request>
</entry>
<entry>
  <resource>
    
    
  <Observation>
  <id value="ID35-bmi"/>
    <text>
      <status value="generated"/>
      <div xmlns="http://www.w3.org/1999/xhtml">2000-01-11: bmi = 12.5 kg/m2</div>
    </text>
    <code>
      <coding>
        <system value="http://loinc.org"/>
        <code value="39156-5"/>
        <display value="bmi"/>
      </coding>
    </code>
    <valueQuantity>
      <value value="12.5"/>
      <unit value="kg/m2"/>
      <system value="http://unitsofmeasure.org" />
      <code value="kg/m2"/>
    </valueQuantity>
    
    <effectiveDateTime value="2000-01-11"/>
    <status value="final"/>
    <reliability value="ok"/>
    <subject>
      <reference value="Patient/ID629528"/>
    </subject>
    <encounter>
      <reference value="Encounter/ID35"/>
    </encounter>
    
  </Observation>
  
  </resource>
  <request>
    <method value="PUT"/>
    <url value="Observation/ID35-bmi"/>
  </request>
</entry>
<entry>
  <resource>
    
    
  <Observation>
  <id value="ID35-oxygensaturation"/>
    <text>
      <status value="generated"/>
      <div xmlns="http://www.w3.org/1999/xhtml">2000-01-11: oxygen_saturation = 94.0 %{HemoglobinSaturation}</div>
    </text>
    <code>
      <coding>
        <system value="http://loinc.org"/>
        <code value="2710-2"/>
        <display value="oxygen_saturation"/>
      </coding>
    </code>
    <valueQuantity>
      <value value="94.0"/>
      <unit value="%{HemoglobinSaturation}"/>
      <system value="http://unitsofmeasure.org" />
      <code value="%{HemoglobinSaturation}"/>
    </valueQuantity>
    
    <effectiveDateTime value="2000-01-11"/>
    <status value="final"/>
    <reliability value="ok"/>
    <subject>
      <reference value="Patient/ID629528"/>
    </subject>
    <encounter>
      <reference value="Encounter/ID35"/>
    </encounter>
    
  </Observation>
  
  </resource>
  <request>
    <method value="PUT"/>
    <url value="Observation/ID35-oxygensaturation"/>
  </request>
</entry>
<entry>
  <resource>
    
    
  <Observation>
  <id value="ID36-height"/>
    <text>
      <status value="generated"/>
      <div xmlns="http://www.w3.org/1999/xhtml">2001-01-08: height = 167.64 cm</div>
    </text>
    <code>
      <coding>
        <system value="http://loinc.org"/>
        <code value="8302-2"/>
        <display value="height"/>
      </coding>
    </code>
    <valueQuantity>
      <value value="167.64"/>
      <unit value="cm"/>
      <system value="http://unitsofmeasure.org" />
      <code value="cm"/>
    </valueQuantity>
    
    <effectiveDateTime value="2001-01-08"/>
    <status value="final"/>
    <reliability value="ok"/>
    <subject>
      <reference value="Patient/ID629528"/>
    </subject>
    <encounter>
      <reference value="Encounter/ID36"/>
    </encounter>
    
  </Observation>
  
  </resource>
  <request>
    <method value="PUT"/>
    <url value="Observation/ID36-height"/>
  </request>
</entry>
<entry>
  <resource>
    
    
  <Observation>
  <id value="ID36-heartrate"/>
    <text>
      <status value="generated"/>
      <div xmlns="http://www.w3.org/1999/xhtml">2001-01-08: heart_rate = 73.0 {beats}/min</div>
    </text>
    <code>
      <coding>
        <system value="http://loinc.org"/>
        <code value="8867-4"/>
        <display value="heart_rate"/>
      </coding>
    </code>
    <valueQuantity>
      <value value="73.0"/>
      <unit value="{beats}/min"/>
      <system value="http://unitsofmeasure.org" />
      <code value="{beats}/min"/>
    </valueQuantity>
    
    <effectiveDateTime value="2001-01-08"/>
    <status value="final"/>
    <reliability value="ok"/>
    <subject>
      <reference value="Patient/ID629528"/>
    </subject>
    <encounter>
      <reference value="Encounter/ID36"/>
    </encounter>
    
  </Observation>
  
  </resource>
  <request>
    <method value="PUT"/>
    <url value="Observation/ID36-heartrate"/>
  </request>
</entry>
<entry>
  <resource>
    
    
  <Observation>
  <id value="ID36-respiratoryrate"/>
    <text>
      <status value="generated"/>
      <div xmlns="http://www.w3.org/1999/xhtml">2001-01-08: respiratory_rate = 16.0 {breaths}/min</div>
    </text>
    <code>
      <coding>
        <system value="http://loinc.org"/>
        <code value="9279-1"/>
        <display value="respiratory_rate"/>
      </coding>
    </code>
    <valueQuantity>
      <value value="16.0"/>
      <unit value="{breaths}/min"/>
      <system value="http://unitsofmeasure.org" />
      <code value="{breaths}/min"/>
    </valueQuantity>
    
    <effectiveDateTime value="2001-01-08"/>
    <status value="final"/>
    <reliability value="ok"/>
    <subject>
      <reference value="Patient/ID629528"/>
    </subject>
    <encounter>
      <reference value="Encounter/ID36"/>
    </encounter>
    
  </Observation>
  
  </resource>
  <request>
    <method value="PUT"/>
    <url value="Observation/ID36-respiratoryrate"/>
  </request>
</entry>
<entry>
  <resource>
    
    
  <Observation>
  <id value="ID36-temperature"/>
    <text>
      <status value="generated"/>
      <div xmlns="http://www.w3.org/1999/xhtml">2001-01-08: temperature = 36.61111 Cel</div>
    </text>
    <code>
      <coding>
        <system value="http://loinc.org"/>
        <code value="8310-5"/>
        <display value="temperature"/>
      </coding>
    </code>
    <valueQuantity>
      <value value="36.61111"/>
      <unit value="Cel"/>
      <system value="http://unitsofmeasure.org" />
      <code value="Cel"/>
    </valueQuantity>
    
    <effectiveDateTime value="2001-01-08"/>
    <status value="final"/>
    <reliability value="ok"/>
    <subject>
      <reference value="Patient/ID629528"/>
    </subject>
    <encounter>
      <reference value="Encounter/ID36"/>
    </encounter>
    
  </Observation>
  
  </resource>
  <request>
    <method value="PUT"/>
    <url value="Observation/ID36-temperature"/>
  </request>
</entry>
<entry>
  <resource>
    
    
  <Observation>
  <id value="ID36-weight"/>
    <text>
      <status value="generated"/>
      <div xmlns="http://www.w3.org/1999/xhtml">2001-01-08: weight = 34.47302 kg</div>
    </text>
    <code>
      <coding>
        <system value="http://loinc.org"/>
        <code value="3141-9"/>
        <display value="weight"/>
      </coding>
    </code>
    <valueQuantity>
      <value value="34.47302"/>
      <unit value="kg"/>
      <system value="http://unitsofmeasure.org" />
      <code value="kg"/>
    </valueQuantity>
    
    <effectiveDateTime value="2001-01-08"/>
    <status value="final"/>
    <reliability value="ok"/>
    <subject>
      <reference value="Patient/ID629528"/>
    </subject>
    <encounter>
      <reference value="Encounter/ID36"/>
    </encounter>
    
  </Observation>
  
  </resource>
  <request>
    <method value="PUT"/>
    <url value="Observation/ID36-weight"/>
  </request>
</entry>
<entry>
  <resource>
    
    
  <Observation>
  <id value="ID36-bmi"/>
    <text>
      <status value="generated"/>
      <div xmlns="http://www.w3.org/1999/xhtml">2001-01-08: bmi = 12.3 kg/m2</div>
    </text>
    <code>
      <coding>
        <system value="http://loinc.org"/>
        <code value="39156-5"/>
        <display value="bmi"/>
      </coding>
    </code>
    <valueQuantity>
      <value value="12.3"/>
      <unit value="kg/m2"/>
      <system value="http://unitsofmeasure.org" />
      <code value="kg/m2"/>
    </valueQuantity>
    
    <effectiveDateTime value="2001-01-08"/>
    <status value="final"/>
    <reliability value="ok"/>
    <subject>
      <reference value="Patient/ID629528"/>
    </subject>
    <encounter>
      <reference value="Encounter/ID36"/>
    </encounter>
    
  </Observation>
  
  </resource>
  <request>
    <method value="PUT"/>
    <url value="Observation/ID36-bmi"/>
  </request>
</entry>
<entry>
  <resource>
    
    
  <Observation>
  <id value="ID36-oxygensaturation"/>
    <text>
      <status value="generated"/>
      <div xmlns="http://www.w3.org/1999/xhtml">2001-01-08: oxygen_saturation = 95.0 %{HemoglobinSaturation}</div>
    </text>
    <code>
      <coding>
        <system value="http://loinc.org"/>
        <code value="2710-2"/>
        <display value="oxygen_saturation"/>
      </coding>
    </code>
    <valueQuantity>
      <value value="95.0"/>
      <unit value="%{HemoglobinSaturation}"/>
      <system value="http://unitsofmeasure.org" />
      <code value="%{HemoglobinSaturation}"/>
    </valueQuantity>
    
    <effectiveDateTime value="2001-01-08"/>
    <status value="final"/>
    <reliability value="ok"/>
    <subject>
      <reference value="Patient/ID629528"/>
    </subject>
    <encounter>
      <reference value="Encounter/ID36"/>
    </encounter>
    
  </Observation>
  
  </resource>
  <request>
    <method value="PUT"/>
    <url value="Observation/ID36-oxygensaturation"/>
  </request>
</entry>
<entry>
  <resource>
    
    
  <Observation>
  <id value="ID37-height"/>
    <text>
      <status value="generated"/>
      <div xmlns="http://www.w3.org/1999/xhtml">2004-05-10: height = 168.656 cm</div>
    </text>
    <code>
      <coding>
        <system value="http://loinc.org"/>
        <code value="8302-2"/>
        <display value="height"/>
      </coding>
    </code>
    <valueQuantity>
      <value value="168.656"/>
      <unit value="cm"/>
      <system value="http://unitsofmeasure.org" />
      <code value="cm"/>
    </valueQuantity>
    
    <effectiveDateTime value="2004-05-10"/>
    <status value="final"/>
    <reliability value="ok"/>
    <subject>
      <reference value="Patient/ID629528"/>
    </subject>
    <encounter>
      <reference value="Encounter/ID37"/>
    </encounter>
    
  </Observation>
  
  </resource>
  <request>
    <method value="PUT"/>
    <url value="Observation/ID37-height"/>
  </request>
</entry>
<entry>
  <resource>
    
    
  <Observation>
  <id value="ID37-heartrate"/>
    <text>
      <status value="generated"/>
      <div xmlns="http://www.w3.org/1999/xhtml">2004-05-10: heart_rate = 79.0 {beats}/min</div>
    </text>
    <code>
      <coding>
        <system value="http://loinc.org"/>
        <code value="8867-4"/>
        <display value="heart_rate"/>
      </coding>
    </code>
    <valueQuantity>
      <value value="79.0"/>
      <unit value="{beats}/min"/>
      <system value="http://unitsofmeasure.org" />
      <code value="{beats}/min"/>
    </valueQuantity>
    
    <effectiveDateTime value="2004-05-10"/>
    <status value="final"/>
    <reliability value="ok"/>
    <subject>
      <reference value="Patient/ID629528"/>
    </subject>
    <encounter>
      <reference value="Encounter/ID37"/>
    </encounter>
    
  </Observation>
  
  </resource>
  <request>
    <method value="PUT"/>
    <url value="Observation/ID37-heartrate"/>
  </request>
</entry>
<entry>
  <resource>
    
    
  <Observation>
  <id value="ID37-respiratoryrate"/>
    <text>
      <status value="generated"/>
      <div xmlns="http://www.w3.org/1999/xhtml">2004-05-10: respiratory_rate = 15.0 {breaths}/min</div>
    </text>
    <code>
      <coding>
        <system value="http://loinc.org"/>
        <code value="9279-1"/>
        <display value="respiratory_rate"/>
      </coding>
    </code>
    <valueQuantity>
      <value value="15.0"/>
      <unit value="{breaths}/min"/>
      <system value="http://unitsofmeasure.org" />
      <code value="{breaths}/min"/>
    </valueQuantity>
    
    <effectiveDateTime value="2004-05-10"/>
    <status value="final"/>
    <reliability value="ok"/>
    <subject>
      <reference value="Patient/ID629528"/>
    </subject>
    <encounter>
      <reference value="Encounter/ID37"/>
    </encounter>
    
  </Observation>
  
  </resource>
  <request>
    <method value="PUT"/>
    <url value="Observation/ID37-respiratoryrate"/>
  </request>
</entry>
<entry>
  <resource>
    
    
  <Observation>
  <id value="ID37-temperature"/>
    <text>
      <status value="generated"/>
      <div xmlns="http://www.w3.org/1999/xhtml">2004-05-10: temperature = 36.66667 Cel</div>
    </text>
    <code>
      <coding>
        <system value="http://loinc.org"/>
        <code value="8310-5"/>
        <display value="temperature"/>
      </coding>
    </code>
    <valueQuantity>
      <value value="36.66667"/>
      <unit value="Cel"/>
      <system value="http://unitsofmeasure.org" />
      <code value="Cel"/>
    </valueQuantity>
    
    <effectiveDateTime value="2004-05-10"/>
    <status value="final"/>
    <reliability value="ok"/>
    <subject>
      <reference value="Patient/ID629528"/>
    </subject>
    <encounter>
      <reference value="Encounter/ID37"/>
    </encounter>
    
  </Observation>
  
  </resource>
  <request>
    <method value="PUT"/>
    <url value="Observation/ID37-temperature"/>
  </request>
</entry>
<entry>
  <resource>
    
    
  <Observation>
  <id value="ID37-weight"/>
    <text>
      <status value="generated"/>
      <div xmlns="http://www.w3.org/1999/xhtml">2004-05-10: weight = 42.86448 kg</div>
    </text>
    <code>
      <coding>
        <system value="http://loinc.org"/>
        <code value="3141-9"/>
        <display value="weight"/>
      </coding>
    </code>
    <valueQuantity>
      <value value="42.86448"/>
      <unit value="kg"/>
      <system value="http://unitsofmeasure.org" />
      <code value="kg"/>
    </valueQuantity>
    
    <effectiveDateTime value="2004-05-10"/>
    <status value="final"/>
    <reliability value="ok"/>
    <subject>
      <reference value="Patient/ID629528"/>
    </subject>
    <encounter>
      <reference value="Encounter/ID37"/>
    </encounter>
    
  </Observation>
  
  </resource>
  <request>
    <method value="PUT"/>
    <url value="Observation/ID37-weight"/>
  </request>
</entry>
<entry>
  <resource>
    
    
  <Observation>
  <id value="ID37-bmi"/>
    <text>
      <status value="generated"/>
      <div xmlns="http://www.w3.org/1999/xhtml">2004-05-10: bmi = 15.1 kg/m2</div>
    </text>
    <code>
      <coding>
        <system value="http://loinc.org"/>
        <code value="39156-5"/>
        <display value="bmi"/>
      </coding>
    </code>
    <valueQuantity>
      <value value="15.1"/>
      <unit value="kg/m2"/>
      <system value="http://unitsofmeasure.org" />
      <code value="kg/m2"/>
    </valueQuantity>
    
    <effectiveDateTime value="2004-05-10"/>
    <status value="final"/>
    <reliability value="ok"/>
    <subject>
      <reference value="Patient/ID629528"/>
    </subject>
    <encounter>
      <reference value="Encounter/ID37"/>
    </encounter>
    
  </Observation>
  
  </resource>
  <request>
    <method value="PUT"/>
    <url value="Observation/ID37-bmi"/>
  </request>
</entry>
<entry>
  <resource>
    
    
  <Observation>
  <id value="ID37-oxygensaturation"/>
    <text>
      <status value="generated"/>
      <div xmlns="http://www.w3.org/1999/xhtml">2004-05-10: oxygen_saturation = 97.0 %{HemoglobinSaturation}</div>
    </text>
    <code>
      <coding>
        <system value="http://loinc.org"/>
        <code value="2710-2"/>
        <display value="oxygen_saturation"/>
      </coding>
    </code>
    <valueQuantity>
      <value value="97.0"/>
      <unit value="%{HemoglobinSaturation}"/>
      <system value="http://unitsofmeasure.org" />
      <code value="%{HemoglobinSaturation}"/>
    </valueQuantity>
    
    <effectiveDateTime value="2004-05-10"/>
    <status value="final"/>
    <reliability value="ok"/>
    <subject>
      <reference value="Patient/ID629528"/>
    </subject>
    <encounter>
      <reference value="Encounter/ID37"/>
    </encounter>
    
  </Observation>
  
  </resource>
  <request>
    <method value="PUT"/>
    <url value="Observation/ID37-oxygensaturation"/>
  </request>
</entry>
<entry>
  <resource>
    
    
  <Observation>
  <id value="ID38-height"/>
    <text>
      <status value="generated"/>
      <div xmlns="http://www.w3.org/1999/xhtml">2004-05-11: height = 168.656 cm</div>
    </text>
    <code>
      <coding>
        <system value="http://loinc.org"/>
        <code value="8302-2"/>
        <display value="height"/>
      </coding>
    </code>
    <valueQuantity>
      <value value="168.656"/>
      <unit value="cm"/>
      <system value="http://unitsofmeasure.org" />
      <code value="cm"/>
    </valueQuantity>
    
    <effectiveDateTime value="2004-05-11"/>
    <status value="final"/>
    <reliability value="ok"/>
    <subject>
      <reference value="Patient/ID629528"/>
    </subject>
    <encounter>
      <reference value="Encounter/ID38"/>
    </encounter>
    
  </Observation>
  
  </resource>
  <request>
    <method value="PUT"/>
    <url value="Observation/ID38-height"/>
  </request>
</entry>
<entry>
  <resource>
    
    
  <Observation>
  <id value="ID38-heartrate"/>
    <text>
      <status value="generated"/>
      <div xmlns="http://www.w3.org/1999/xhtml">2004-05-11: heart_rate = 76.0 {beats}/min</div>
    </text>
    <code>
      <coding>
        <system value="http://loinc.org"/>
        <code value="8867-4"/>
        <display value="heart_rate"/>
      </coding>
    </code>
    <valueQuantity>
      <value value="76.0"/>
      <unit value="{beats}/min"/>
      <system value="http://unitsofmeasure.org" />
      <code value="{beats}/min"/>
    </valueQuantity>
    
    <effectiveDateTime value="2004-05-11"/>
    <status value="final"/>
    <reliability value="ok"/>
    <subject>
      <reference value="Patient/ID629528"/>
    </subject>
    <encounter>
      <reference value="Encounter/ID38"/>
    </encounter>
    
  </Observation>
  
  </resource>
  <request>
    <method value="PUT"/>
    <url value="Observation/ID38-heartrate"/>
  </request>
</entry>
<entry>
  <resource>
    
    
  <Observation>
  <id value="ID38-respiratoryrate"/>
    <text>
      <status value="generated"/>
      <div xmlns="http://www.w3.org/1999/xhtml">2004-05-11: respiratory_rate = 15.0 {breaths}/min</div>
    </text>
    <code>
      <coding>
        <system value="http://loinc.org"/>
        <code value="9279-1"/>
        <display value="respiratory_rate"/>
      </coding>
    </code>
    <valueQuantity>
      <value value="15.0"/>
      <unit value="{breaths}/min"/>
      <system value="http://unitsofmeasure.org" />
      <code value="{breaths}/min"/>
    </valueQuantity>
    
    <effectiveDateTime value="2004-05-11"/>
    <status value="final"/>
    <reliability value="ok"/>
    <subject>
      <reference value="Patient/ID629528"/>
    </subject>
    <encounter>
      <reference value="Encounter/ID38"/>
    </encounter>
    
  </Observation>
  
  </resource>
  <request>
    <method value="PUT"/>
    <url value="Observation/ID38-respiratoryrate"/>
  </request>
</entry>
<entry>
  <resource>
    
    
  <Observation>
  <id value="ID38-temperature"/>
    <text>
      <status value="generated"/>
      <div xmlns="http://www.w3.org/1999/xhtml">2004-05-11: temperature = 36.66667 Cel</div>
    </text>
    <code>
      <coding>
        <system value="http://loinc.org"/>
        <code value="8310-5"/>
        <display value="temperature"/>
      </coding>
    </code>
    <valueQuantity>
      <value value="36.66667"/>
      <unit value="Cel"/>
      <system value="http://unitsofmeasure.org" />
      <code value="Cel"/>
    </valueQuantity>
    
    <effectiveDateTime value="2004-05-11"/>
    <status value="final"/>
    <reliability value="ok"/>
    <subject>
      <reference value="Patient/ID629528"/>
    </subject>
    <encounter>
      <reference value="Encounter/ID38"/>
    </encounter>
    
  </Observation>
  
  </resource>
  <request>
    <method value="PUT"/>
    <url value="Observation/ID38-temperature"/>
  </request>
</entry>
<entry>
  <resource>
    
    
  <Observation>
  <id value="ID38-weight"/>
    <text>
      <status value="generated"/>
      <div xmlns="http://www.w3.org/1999/xhtml">2004-05-11: weight = 48.03543 kg</div>
    </text>
    <code>
      <coding>
        <system value="http://loinc.org"/>
        <code value="3141-9"/>
        <display value="weight"/>
      </coding>
    </code>
    <valueQuantity>
      <value value="48.03543"/>
      <unit value="kg"/>
      <system value="http://unitsofmeasure.org" />
      <code value="kg"/>
    </valueQuantity>
    
    <effectiveDateTime value="2004-05-11"/>
    <status value="final"/>
    <reliability value="ok"/>
    <subject>
      <reference value="Patient/ID629528"/>
    </subject>
    <encounter>
      <reference value="Encounter/ID38"/>
    </encounter>
    
  </Observation>
  
  </resource>
  <request>
    <method value="PUT"/>
    <url value="Observation/ID38-weight"/>
  </request>
</entry>
<entry>
  <resource>
    
    
  <Observation>
  <id value="ID38-bmi"/>
    <text>
      <status value="generated"/>
      <div xmlns="http://www.w3.org/1999/xhtml">2004-05-11: bmi = 16.9 kg/m2</div>
    </text>
    <code>
      <coding>
        <system value="http://loinc.org"/>
        <code value="39156-5"/>
        <display value="bmi"/>
      </coding>
    </code>
    <valueQuantity>
      <value value="16.9"/>
      <unit value="kg/m2"/>
      <system value="http://unitsofmeasure.org" />
      <code value="kg/m2"/>
    </valueQuantity>
    
    <effectiveDateTime value="2004-05-11"/>
    <status value="final"/>
    <reliability value="ok"/>
    <subject>
      <reference value="Patient/ID629528"/>
    </subject>
    <encounter>
      <reference value="Encounter/ID38"/>
    </encounter>
    
  </Observation>
  
  </resource>
  <request>
    <method value="PUT"/>
    <url value="Observation/ID38-bmi"/>
  </request>
</entry>
<entry>
  <resource>
    
    
  <Observation>
  <id value="ID38-oxygensaturation"/>
    <text>
      <status value="generated"/>
      <div xmlns="http://www.w3.org/1999/xhtml">2004-05-11: oxygen_saturation = 97.0 %{HemoglobinSaturation}</div>
    </text>
    <code>
      <coding>
        <system value="http://loinc.org"/>
        <code value="2710-2"/>
        <display value="oxygen_saturation"/>
      </coding>
    </code>
    <valueQuantity>
      <value value="97.0"/>
      <unit value="%{HemoglobinSaturation}"/>
      <system value="http://unitsofmeasure.org" />
      <code value="%{HemoglobinSaturation}"/>
    </valueQuantity>
    
    <effectiveDateTime value="2004-05-11"/>
    <status value="final"/>
    <reliability value="ok"/>
    <subject>
      <reference value="Patient/ID629528"/>
    </subject>
    <encounter>
      <reference value="Encounter/ID38"/>
    </encounter>
    
  </Observation>
  
  </resource>
  <request>
    <method value="PUT"/>
    <url value="Observation/ID38-oxygensaturation"/>
  </request>
</entry>
<entry>
  <resource>
    
    
  <Observation>
  <id value="ID39-height"/>
    <text>
      <status value="generated"/>
      <div xmlns="http://www.w3.org/1999/xhtml">2004-09-03: height = 168.402 cm</div>
    </text>
    <code>
      <coding>
        <system value="http://loinc.org"/>
        <code value="8302-2"/>
        <display value="height"/>
      </coding>
    </code>
    <valueQuantity>
      <value value="168.402"/>
      <unit value="cm"/>
      <system value="http://unitsofmeasure.org" />
      <code value="cm"/>
    </valueQuantity>
    
    <effectiveDateTime value="2004-09-03"/>
    <status value="final"/>
    <reliability value="ok"/>
    <subject>
      <reference value="Patient/ID629528"/>
    </subject>
    <encounter>
      <reference value="Encounter/ID39"/>
    </encounter>
    
  </Observation>
  
  </resource>
  <request>
    <method value="PUT"/>
    <url value="Observation/ID39-height"/>
  </request>
</entry>
<entry>
  <resource>
    
    
  <Observation>
  <id value="ID39-heartrate"/>
    <text>
      <status value="generated"/>
      <div xmlns="http://www.w3.org/1999/xhtml">2004-09-03: heart_rate = 77.0 {beats}/min</div>
    </text>
    <code>
      <coding>
        <system value="http://loinc.org"/>
        <code value="8867-4"/>
        <display value="heart_rate"/>
      </coding>
    </code>
    <valueQuantity>
      <value value="77.0"/>
      <unit value="{beats}/min"/>
      <system value="http://unitsofmeasure.org" />
      <code value="{beats}/min"/>
    </valueQuantity>
    
    <effectiveDateTime value="2004-09-03"/>
    <status value="final"/>
    <reliability value="ok"/>
    <subject>
      <reference value="Patient/ID629528"/>
    </subject>
    <encounter>
      <reference value="Encounter/ID39"/>
    </encounter>
    
  </Observation>
  
  </resource>
  <request>
    <method value="PUT"/>
    <url value="Observation/ID39-heartrate"/>
  </request>
</entry>
<entry>
  <resource>
    
    
  <Observation>
  <id value="ID39-respiratoryrate"/>
    <text>
      <status value="generated"/>
      <div xmlns="http://www.w3.org/1999/xhtml">2004-09-03: respiratory_rate = 15.0 {breaths}/min</div>
    </text>
    <code>
      <coding>
        <system value="http://loinc.org"/>
        <code value="9279-1"/>
        <display value="respiratory_rate"/>
      </coding>
    </code>
    <valueQuantity>
      <value value="15.0"/>
      <unit value="{breaths}/min"/>
      <system value="http://unitsofmeasure.org" />
      <code value="{breaths}/min"/>
    </valueQuantity>
    
    <effectiveDateTime value="2004-09-03"/>
    <status value="final"/>
    <reliability value="ok"/>
    <subject>
      <reference value="Patient/ID629528"/>
    </subject>
    <encounter>
      <reference value="Encounter/ID39"/>
    </encounter>
    
  </Observation>
  
  </resource>
  <request>
    <method value="PUT"/>
    <url value="Observation/ID39-respiratoryrate"/>
  </request>
</entry>
<entry>
  <resource>
    
    
  <Observation>
  <id value="ID39-temperature"/>
    <text>
      <status value="generated"/>
      <div xmlns="http://www.w3.org/1999/xhtml">2004-09-03: temperature = 36.66667 Cel</div>
    </text>
    <code>
      <coding>
        <system value="http://loinc.org"/>
        <code value="8310-5"/>
        <display value="temperature"/>
      </coding>
    </code>
    <valueQuantity>
      <value value="36.66667"/>
      <unit value="Cel"/>
      <system value="http://unitsofmeasure.org" />
      <code value="Cel"/>
    </valueQuantity>
    
    <effectiveDateTime value="2004-09-03"/>
    <status value="final"/>
    <reliability value="ok"/>
    <subject>
      <reference value="Patient/ID629528"/>
    </subject>
    <encounter>
      <reference value="Encounter/ID39"/>
    </encounter>
    
  </Observation>
  
  </resource>
  <request>
    <method value="PUT"/>
    <url value="Observation/ID39-temperature"/>
  </request>
</entry>
<entry>
  <resource>
    
    
  <Observation>
  <id value="ID39-weight"/>
    <text>
      <status value="generated"/>
      <div xmlns="http://www.w3.org/1999/xhtml">2004-09-03: weight = 44.86029 kg</div>
    </text>
    <code>
      <coding>
        <system value="http://loinc.org"/>
        <code value="3141-9"/>
        <display value="weight"/>
      </coding>
    </code>
    <valueQuantity>
      <value value="44.86029"/>
      <unit value="kg"/>
      <system value="http://unitsofmeasure.org" />
      <code value="kg"/>
    </valueQuantity>
    
    <effectiveDateTime value="2004-09-03"/>
    <status value="final"/>
    <reliability value="ok"/>
    <subject>
      <reference value="Patient/ID629528"/>
    </subject>
    <encounter>
      <reference value="Encounter/ID39"/>
    </encounter>
    
  </Observation>
  
  </resource>
  <request>
    <method value="PUT"/>
    <url value="Observation/ID39-weight"/>
  </request>
</entry>
<entry>
  <resource>
    
    
  <Observation>
  <id value="ID39-bmi"/>
    <text>
      <status value="generated"/>
      <div xmlns="http://www.w3.org/1999/xhtml">2004-09-03: bmi = 15.8 kg/m2</div>
    </text>
    <code>
      <coding>
        <system value="http://loinc.org"/>
        <code value="39156-5"/>
        <display value="bmi"/>
      </coding>
    </code>
    <valueQuantity>
      <value value="15.8"/>
      <unit value="kg/m2"/>
      <system value="http://unitsofmeasure.org" />
      <code value="kg/m2"/>
    </valueQuantity>
    
    <effectiveDateTime value="2004-09-03"/>
    <status value="final"/>
    <reliability value="ok"/>
    <subject>
      <reference value="Patient/ID629528"/>
    </subject>
    <encounter>
      <reference value="Encounter/ID39"/>
    </encounter>
    
  </Observation>
  
  </resource>
  <request>
    <method value="PUT"/>
    <url value="Observation/ID39-bmi"/>
  </request>
</entry>
<entry>
  <resource>
    
    
  <Observation>
  <id value="ID39-oxygensaturation"/>
    <text>
      <status value="generated"/>
      <div xmlns="http://www.w3.org/1999/xhtml">2004-09-03: oxygen_saturation = 97.0 %{HemoglobinSaturation}</div>
    </text>
    <code>
      <coding>
        <system value="http://loinc.org"/>
        <code value="2710-2"/>
        <display value="oxygen_saturation"/>
      </coding>
    </code>
    <valueQuantity>
      <value value="97.0"/>
      <unit value="%{HemoglobinSaturation}"/>
      <system value="http://unitsofmeasure.org" />
      <code value="%{HemoglobinSaturation}"/>
    </valueQuantity>
    
    <effectiveDateTime value="2004-09-03"/>
    <status value="final"/>
    <reliability value="ok"/>
    <subject>
      <reference value="Patient/ID629528"/>
    </subject>
    <encounter>
      <reference value="Encounter/ID39"/>
    </encounter>
    
  </Observation>
  
  </resource>
  <request>
    <method value="PUT"/>
    <url value="Observation/ID39-oxygensaturation"/>
  </request>
</entry>
<entry>
  <resource>
    
    
  <Observation>
  <id value="ID1857-lab"/>
    <text>
      <status value="generated"/>
      <div xmlns="http://www.w3.org/1999/xhtml">2009-03-26: PMV Bld = 11.2 fL</div>
    </text>
    <code>
      <coding>
        <system value="http://loinc.org"/>
        <code value="28542-9"/>
        <display value="PMV Bld"/>
      </coding>
    </code>
    <valueQuantity>
      <value value="11.2"/>
      <unit value="fL"/>
      <system value="http://unitsofmeasure.org" />
      <code value=""/>
    </valueQuantity>
    
    <effectiveDateTime value="2009-03-26"/>
    <status value="final"/>
    <reliability value="ok"/>
    <subject>
      <reference value="Patient/ID629528"/>
    </subject>
    <referenceRange>
      <meaning>
        <coding>
         <system value="http://hl7.org/fhir/referencerange-meaning"/>
         <code value="normal"/>
         <display value="Normal Range"/>
       </coding>
      </meaning>
        <low>
          <value value="6.0"/>
          <unit value="fL"/>
          <code value="fL"/>
          <system value="http://unitsofmeasure.org"/>
        </low>
        <high>
          <value value="9.5"/>
          <unit value="fL"/>
          <code value="fL"/>
          <system value="http://unitsofmeasure.org"/>
        </high>
    </referenceRange>
    
  </Observation>
  
  </resource>
  <request>
    <method value="PUT"/>
    <url value="Observation/ID1857-lab"/>
  </request>
</entry>
<entry>
  <resource>
    
    
  <Observation>
  <id value="ID1858-lab"/>
    <text>
      <status value="generated"/>
      <div xmlns="http://www.w3.org/1999/xhtml">2009-03-26: Basophils NFr Bld = 1 %</div>
    </text>
    <code>
      <coding>
        <system value="http://loinc.org"/>
        <code value="30180-4"/>
        <display value="Basophils NFr Bld"/>
      </coding>
    </code>
    <valueQuantity>
      <value value="1.0"/>
      <unit value="%"/>
      <system value="http://unitsofmeasure.org" />
      <code value=""/>
    </valueQuantity>
    
    <effectiveDateTime value="2009-03-26"/>
    <status value="final"/>
    <reliability value="ok"/>
    <subject>
      <reference value="Patient/ID629528"/>
    </subject>
    <referenceRange>
      <meaning>
        <coding>
         <system value="http://hl7.org/fhir/referencerange-meaning"/>
         <code value="normal"/>
         <display value="Normal Range"/>
       </coding>
      </meaning>
        <low>
          <value value="0.0"/>
          <unit value="%"/>
          <code value="%"/>
          <system value="http://unitsofmeasure.org"/>
        </low>
        <high>
          <value value="2.0"/>
          <unit value="%"/>
          <code value="%"/>
          <system value="http://unitsofmeasure.org"/>
        </high>
    </referenceRange>
    
  </Observation>
  
  </resource>
  <request>
    <method value="PUT"/>
    <url value="Observation/ID1858-lab"/>
  </request>
</entry>
<entry>
  <resource>
    
    
  <Observation>
  <id value="ID1859-lab"/>
    <text>
      <status value="generated"/>
      <div xmlns="http://www.w3.org/1999/xhtml">2009-03-26: Hgb Bld-mCnc = 13.2 g/dL</div>
    </text>
    <code>
      <coding>
        <system value="http://loinc.org"/>
        <code value="718-7"/>
        <display value="Hgb Bld-mCnc"/>
      </coding>
    </code>
    <valueQuantity>
      <value value="13.2"/>
      <unit value="g/dL"/>
      <system value="http://unitsofmeasure.org" />
      <code value=""/>
    </valueQuantity>
    
    <effectiveDateTime value="2009-03-26"/>
    <status value="final"/>
    <reliability value="ok"/>
    <subject>
      <reference value="Patient/ID629528"/>
    </subject>
    <referenceRange>
      <meaning>
        <coding>
         <system value="http://hl7.org/fhir/referencerange-meaning"/>
         <code value="normal"/>
         <display value="Normal Range"/>
       </coding>
      </meaning>
        <low>
          <value value="12.5"/>
          <unit value="g/dL"/>
          <code value="g/dL"/>
          <system value="http://unitsofmeasure.org"/>
        </low>
        <high>
          <value value="16.0"/>
          <unit value="g/dL"/>
          <code value="g/dL"/>
          <system value="http://unitsofmeasure.org"/>
        </high>
    </referenceRange>
    
  </Observation>
  
  </resource>
  <request>
    <method value="PUT"/>
    <url value="Observation/ID1859-lab"/>
  </request>
</entry>
<entry>
  <resource>
    
    
  <Observation>
  <id value="ID1860-lab"/>
    <text>
      <status value="generated"/>
      <div xmlns="http://www.w3.org/1999/xhtml">2009-03-26: Trigl SerPl-mCnc = 132 mg/dL</div>
    </text>
    <code>
      <coding>
        <system value="http://loinc.org"/>
        <code value="2571-8"/>
        <display value="Trigl SerPl-mCnc"/>
      </coding>
    </code>
    <valueQuantity>
      <value value="132.0"/>
      <unit value="mg/dL"/>
      <system value="http://unitsofmeasure.org" />
      <code value=""/>
    </valueQuantity>
    
    <effectiveDateTime value="2009-03-26"/>
    <status value="final"/>
    <reliability value="ok"/>
    <subject>
      <reference value="Patient/ID629528"/>
    </subject>
    <referenceRange>
      <meaning>
        <coding>
         <system value="http://hl7.org/fhir/referencerange-meaning"/>
         <code value="normal"/>
         <display value="Normal Range"/>
       </coding>
      </meaning>
        <low>
          <value value="0.0"/>
          <unit value="mg/dL"/>
          <code value="mg/dL"/>
          <system value="http://unitsofmeasure.org"/>
        </low>
        <high>
          <value value="0.0"/>
          <unit value="mg/dL"/>
          <code value="mg/dL"/>
          <system value="http://unitsofmeasure.org"/>
        </high>
    </referenceRange>
    
  </Observation>
  
  </resource>
  <request>
    <method value="PUT"/>
    <url value="Observation/ID1860-lab"/>
  </request>
</entry>
<entry>
  <resource>
    
    
  <Observation>
  <id value="ID1861-lab"/>
    <text>
      <status value="generated"/>
      <div xmlns="http://www.w3.org/1999/xhtml">2009-03-26: Cholest SerPl-mCnc = 203 mg/dL</div>
    </text>
    <code>
      <coding>
        <system value="http://loinc.org"/>
        <code value="2093-3"/>
        <display value="Cholest SerPl-mCnc"/>
      </coding>
    </code>
    <valueQuantity>
      <value value="203.0"/>
      <unit value="mg/dL"/>
      <system value="http://unitsofmeasure.org" />
      <code value=""/>
    </valueQuantity>
    
    <effectiveDateTime value="2009-03-26"/>
    <status value="final"/>
    <reliability value="ok"/>
    <subject>
      <reference value="Patient/ID629528"/>
    </subject>
    <referenceRange>
      <meaning>
        <coding>
         <system value="http://hl7.org/fhir/referencerange-meaning"/>
         <code value="normal"/>
         <display value="Normal Range"/>
       </coding>
      </meaning>
        <low>
          <value value="0.0"/>
          <unit value="mg/dL"/>
          <code value="mg/dL"/>
          <system value="http://unitsofmeasure.org"/>
        </low>
        <high>
          <value value="0.0"/>
          <unit value="mg/dL"/>
          <code value="mg/dL"/>
          <system value="http://unitsofmeasure.org"/>
        </high>
    </referenceRange>
    
  </Observation>
  
  </resource>
  <request>
    <method value="PUT"/>
    <url value="Observation/ID1861-lab"/>
  </request>
</entry>
<entry>
  <resource>
    
    
  <Observation>
  <id value="ID1862-lab"/>
    <text>
      <status value="generated"/>
      <div xmlns="http://www.w3.org/1999/xhtml">2009-03-26: WBC # Bld = 7 10*3/uL</div>
    </text>
    <code>
      <coding>
        <system value="http://loinc.org"/>
        <code value="26464-8"/>
        <display value="WBC # Bld"/>
      </coding>
    </code>
    <valueQuantity>
      <value value="7.0"/>
      <unit value="10*3/uL"/>
      <system value="http://unitsofmeasure.org" />
      <code value=""/>
    </valueQuantity>
    
    <effectiveDateTime value="2009-03-26"/>
    <status value="final"/>
    <reliability value="ok"/>
    <subject>
      <reference value="Patient/ID629528"/>
    </subject>
    <referenceRange>
      <meaning>
        <coding>
         <system value="http://hl7.org/fhir/referencerange-meaning"/>
         <code value="normal"/>
         <display value="Normal Range"/>
       </coding>
      </meaning>
        <low>
          <value value="3.2"/>
          <unit value="10*3/uL"/>
          <code value="10*3/uL"/>
          <system value="http://unitsofmeasure.org"/>
        </low>
        <high>
          <value value="10.5"/>
          <unit value="10*3/uL"/>
          <code value="10*3/uL"/>
          <system value="http://unitsofmeasure.org"/>
        </high>
    </referenceRange>
    
  </Observation>
  
  </resource>
  <request>
    <method value="PUT"/>
    <url value="Observation/ID1862-lab"/>
  </request>
</entry>
<entry>
  <resource>
    
    
  <Observation>
  <id value="ID1863-lab"/>
    <text>
      <status value="generated"/>
      <div xmlns="http://www.w3.org/1999/xhtml">2009-03-26: RBC # Bld Auto = 4.28 10*6/uL</div>
    </text>
    <code>
      <coding>
        <system value="http://loinc.org"/>
        <code value="789-8"/>
        <display value="RBC # Bld Auto"/>
      </coding>
    </code>
    <valueQuantity>
      <value value="4.28"/>
      <unit value="10*6/uL"/>
      <system value="http://unitsofmeasure.org" />
      <code value=""/>
    </valueQuantity>
    
    <effectiveDateTime value="2009-03-26"/>
    <status value="final"/>
    <reliability value="ok"/>
    <subject>
      <reference value="Patient/ID629528"/>
    </subject>
    <referenceRange>
      <meaning>
        <coding>
         <system value="http://hl7.org/fhir/referencerange-meaning"/>
         <code value="normal"/>
         <display value="Normal Range"/>
       </coding>
      </meaning>
        <low>
          <value value="4.2"/>
          <unit value="10*6/uL"/>
          <code value="10*6/uL"/>
          <system value="http://unitsofmeasure.org"/>
        </low>
        <high>
          <value value="5.4"/>
          <unit value="10*6/uL"/>
          <code value="10*6/uL"/>
          <system value="http://unitsofmeasure.org"/>
        </high>
    </referenceRange>
    
  </Observation>
  
  </resource>
  <request>
    <method value="PUT"/>
    <url value="Observation/ID1863-lab"/>
  </request>
</entry>
<entry>
  <resource>
    
    
  <Observation>
  <id value="ID1864-lab"/>
    <text>
      <status value="generated"/>
      <div xmlns="http://www.w3.org/1999/xhtml">2009-03-26: Glucose SerPl-mCnc = 88 mg/dL</div>
    </text>
    <code>
      <coding>
        <system value="http://loinc.org"/>
        <code value="2345-7"/>
        <display value="Glucose SerPl-mCnc"/>
      </coding>
    </code>
    <valueQuantity>
      <value value="88.0"/>
      <unit value="mg/dL"/>
      <system value="http://unitsofmeasure.org" />
      <code value=""/>
    </valueQuantity>
    
    <effectiveDateTime value="2009-03-26"/>
    <status value="final"/>
    <reliability value="ok"/>
    <subject>
      <reference value="Patient/ID629528"/>
    </subject>
    <referenceRange>
      <meaning>
        <coding>
         <system value="http://hl7.org/fhir/referencerange-meaning"/>
         <code value="normal"/>
         <display value="Normal Range"/>
       </coding>
      </meaning>
        <low>
          <value value="65.0"/>
          <unit value="mg/dL"/>
          <code value="mg/dL"/>
          <system value="http://unitsofmeasure.org"/>
        </low>
        <high>
          <value value="99.0"/>
          <unit value="mg/dL"/>
          <code value="mg/dL"/>
          <system value="http://unitsofmeasure.org"/>
        </high>
    </referenceRange>
    
  </Observation>
  
  </resource>
  <request>
    <method value="PUT"/>
    <url value="Observation/ID1864-lab"/>
  </request>
</entry>
<entry>
  <resource>
    
    
  <Observation>
  <id value="ID1865-lab"/>
    <text>
      <status value="generated"/>
      <div xmlns="http://www.w3.org/1999/xhtml">2009-03-26: BUN SerPl-mCnc = 10 mg/dL</div>
    </text>
    <code>
      <coding>
        <system value="http://loinc.org"/>
        <code value="3094-0"/>
        <display value="BUN SerPl-mCnc"/>
      </coding>
    </code>
    <valueQuantity>
      <value value="10.0"/>
      <unit value="mg/dL"/>
      <system value="http://unitsofmeasure.org" />
      <code value=""/>
    </valueQuantity>
    
    <effectiveDateTime value="2009-03-26"/>
    <status value="final"/>
    <reliability value="ok"/>
    <subject>
      <reference value="Patient/ID629528"/>
    </subject>
    <referenceRange>
      <meaning>
        <coding>
         <system value="http://hl7.org/fhir/referencerange-meaning"/>
         <code value="normal"/>
         <display value="Normal Range"/>
       </coding>
      </meaning>
        <low>
          <value value="8.0"/>
          <unit value="mg/dL"/>
          <code value="mg/dL"/>
          <system value="http://unitsofmeasure.org"/>
        </low>
        <high>
          <value value="25.0"/>
          <unit value="mg/dL"/>
          <code value="mg/dL"/>
          <system value="http://unitsofmeasure.org"/>
        </high>
    </referenceRange>
    
  </Observation>
  
  </resource>
  <request>
    <method value="PUT"/>
    <url value="Observation/ID1865-lab"/>
  </request>
</entry>
<entry>
  <resource>
    
    
  <Observation>
  <id value="ID1866-lab"/>
    <text>
      <status value="generated"/>
      <div xmlns="http://www.w3.org/1999/xhtml">2009-03-26: AST SerPl-cCnc = 29 U/L</div>
    </text>
    <code>
      <coding>
        <system value="http://loinc.org"/>
        <code value="1920-8"/>
        <display value="AST SerPl-cCnc"/>
      </coding>
    </code>
    <valueQuantity>
      <value value="29.0"/>
      <unit value="U/L"/>
      <system value="http://unitsofmeasure.org" />
      <code value=""/>
    </valueQuantity>
    
    <effectiveDateTime value="2009-03-26"/>
    <status value="final"/>
    <reliability value="ok"/>
    <subject>
      <reference value="Patient/ID629528"/>
    </subject>
    <referenceRange>
      <meaning>
        <coding>
         <system value="http://hl7.org/fhir/referencerange-meaning"/>
         <code value="normal"/>
         <display value="Normal Range"/>
       </coding>
      </meaning>
        <low>
          <value value="0.0"/>
          <unit value="U/L"/>
          <code value="U/L"/>
          <system value="http://unitsofmeasure.org"/>
        </low>
        <high>
          <value value="31.0"/>
          <unit value="U/L"/>
          <code value="U/L"/>
          <system value="http://unitsofmeasure.org"/>
        </high>
    </referenceRange>
    
  </Observation>
  
  </resource>
  <request>
    <method value="PUT"/>
    <url value="Observation/ID1866-lab"/>
  </request>
</entry>
<entry>
  <resource>
    
    
  <Observation>
  <id value="ID1867-lab"/>
    <text>
      <status value="generated"/>
      <div xmlns="http://www.w3.org/1999/xhtml">2009-03-26: Sodium SerPl-sCnc = 140 mmol/L</div>
    </text>
    <code>
      <coding>
        <system value="http://loinc.org"/>
        <code value="2951-2"/>
        <display value="Sodium SerPl-sCnc"/>
      </coding>
    </code>
    <valueQuantity>
      <value value="140.0"/>
      <unit value="mmol/L"/>
      <system value="http://unitsofmeasure.org" />
      <code value=""/>
    </valueQuantity>
    
    <effectiveDateTime value="2009-03-26"/>
    <status value="final"/>
    <reliability value="ok"/>
    <subject>
      <reference value="Patient/ID629528"/>
    </subject>
    <referenceRange>
      <meaning>
        <coding>
         <system value="http://hl7.org/fhir/referencerange-meaning"/>
         <code value="normal"/>
         <display value="Normal Range"/>
       </coding>
      </meaning>
        <low>
          <value value="133.0"/>
          <unit value="mmol/L"/>
          <code value="mmol/L"/>
          <system value="http://unitsofmeasure.org"/>
        </low>
        <high>
          <value value="145.0"/>
          <unit value="mmol/L"/>
          <code value="mmol/L"/>
          <system value="http://unitsofmeasure.org"/>
        </high>
    </referenceRange>
    
  </Observation>
  
  </resource>
  <request>
    <method value="PUT"/>
    <url value="Observation/ID1867-lab"/>
  </request>
</entry>
<entry>
  <resource>
    
    
  <Observation>
  <id value="ID1868-lab"/>
    <text>
      <status value="generated"/>
      <div xmlns="http://www.w3.org/1999/xhtml">2009-03-26: Creat SerPl-mCnc = 0.8 mg/dL</div>
    </text>
    <code>
      <coding>
        <system value="http://loinc.org"/>
        <code value="2160-0"/>
        <display value="Creat SerPl-mCnc"/>
      </coding>
    </code>
    <valueQuantity>
      <value value="0.8"/>
      <unit value="mg/dL"/>
      <system value="http://unitsofmeasure.org" />
      <code value=""/>
    </valueQuantity>
    
    <effectiveDateTime value="2009-03-26"/>
    <status value="final"/>
    <reliability value="ok"/>
    <subject>
      <reference value="Patient/ID629528"/>
    </subject>
    <referenceRange>
      <meaning>
        <coding>
         <system value="http://hl7.org/fhir/referencerange-meaning"/>
         <code value="normal"/>
         <display value="Normal Range"/>
       </coding>
      </meaning>
        <low>
          <value value="0.6"/>
          <unit value="mg/dL"/>
          <code value="mg/dL"/>
          <system value="http://unitsofmeasure.org"/>
        </low>
        <high>
          <value value="1.3"/>
          <unit value="mg/dL"/>
          <code value="mg/dL"/>
          <system value="http://unitsofmeasure.org"/>
        </high>
    </referenceRange>
    
  </Observation>
  
  </resource>
  <request>
    <method value="PUT"/>
    <url value="Observation/ID1868-lab"/>
  </request>
</entry>
<entry>
  <resource>
    
    
  <Observation>
  <id value="ID1869-lab"/>
    <text>
      <status value="generated"/>
      <div xmlns="http://www.w3.org/1999/xhtml">2009-03-26: ALT SerPl-cCnc = 26 U/L</div>
    </text>
    <code>
      <coding>
        <system value="http://loinc.org"/>
        <code value="1742-6"/>
        <display value="ALT SerPl-cCnc"/>
      </coding>
    </code>
    <valueQuantity>
      <value value="26.0"/>
      <unit value="U/L"/>
      <system value="http://unitsofmeasure.org" />
      <code value=""/>
    </valueQuantity>
    
    <effectiveDateTime value="2009-03-26"/>
    <status value="final"/>
    <reliability value="ok"/>
    <subject>
      <reference value="Patient/ID629528"/>
    </subject>
    <referenceRange>
      <meaning>
        <coding>
         <system value="http://hl7.org/fhir/referencerange-meaning"/>
         <code value="normal"/>
         <display value="Normal Range"/>
       </coding>
      </meaning>
        <low>
          <value value="0.0"/>
          <unit value="U/L"/>
          <code value="U/L"/>
          <system value="http://unitsofmeasure.org"/>
        </low>
        <high>
          <value value="40.0"/>
          <unit value="U/L"/>
          <code value="U/L"/>
          <system value="http://unitsofmeasure.org"/>
        </high>
    </referenceRange>
    
  </Observation>
  
  </resource>
  <request>
    <method value="PUT"/>
    <url value="Observation/ID1869-lab"/>
  </request>
</entry>
<entry>
  <resource>
    
    
  <Observation>
  <id value="ID1870-lab"/>
    <text>
      <status value="generated"/>
      <div xmlns="http://www.w3.org/1999/xhtml">2009-03-26: Potassium SerPl-sCnc = 4.4 mmol/L</div>
    </text>
    <code>
      <coding>
        <system value="http://loinc.org"/>
        <code value="2823-3"/>
        <display value="Potassium SerPl-sCnc"/>
      </coding>
    </code>
    <valueQuantity>
      <value value="4.4"/>
      <unit value="mmol/L"/>
      <system value="http://unitsofmeasure.org" />
      <code value=""/>
    </valueQuantity>
    
    <effectiveDateTime value="2009-03-26"/>
    <status value="final"/>
    <reliability value="ok"/>
    <subject>
      <reference value="Patient/ID629528"/>
    </subject>
    <referenceRange>
      <meaning>
        <coding>
         <system value="http://hl7.org/fhir/referencerange-meaning"/>
         <code value="normal"/>
         <display value="Normal Range"/>
       </coding>
      </meaning>
        <low>
          <value value="3.6"/>
          <unit value="mmol/L"/>
          <code value="mmol/L"/>
          <system value="http://unitsofmeasure.org"/>
        </low>
        <high>
          <value value="5.5"/>
          <unit value="mmol/L"/>
          <code value="mmol/L"/>
          <system value="http://unitsofmeasure.org"/>
        </high>
    </referenceRange>
    
  </Observation>
  
  </resource>
  <request>
    <method value="PUT"/>
    <url value="Observation/ID1870-lab"/>
  </request>
</entry>
<entry>
  <resource>
    
    
  <Observation>
  <id value="ID1871-lab"/>
    <text>
      <status value="generated"/>
      <div xmlns="http://www.w3.org/1999/xhtml">2009-03-26: Chloride SerPl-sCnc = 106 mmol/L</div>
    </text>
    <code>
      <coding>
        <system value="http://loinc.org"/>
        <code value="2075-0"/>
        <display value="Chloride SerPl-sCnc"/>
      </coding>
    </code>
    <valueQuantity>
      <value value="106.0"/>
      <unit value="mmol/L"/>
      <system value="http://unitsofmeasure.org" />
      <code value=""/>
    </valueQuantity>
    
    <effectiveDateTime value="2009-03-26"/>
    <status value="final"/>
    <reliability value="ok"/>
    <subject>
      <reference value="Patient/ID629528"/>
    </subject>
    <referenceRange>
      <meaning>
        <coding>
         <system value="http://hl7.org/fhir/referencerange-meaning"/>
         <code value="normal"/>
         <display value="Normal Range"/>
       </coding>
      </meaning>
        <low>
          <value value="96.0"/>
          <unit value="mmol/L"/>
          <code value="mmol/L"/>
          <system value="http://unitsofmeasure.org"/>
        </low>
        <high>
          <value value="108.0"/>
          <unit value="mmol/L"/>
          <code value="mmol/L"/>
          <system value="http://unitsofmeasure.org"/>
        </high>
    </referenceRange>
    
  </Observation>
  
  </resource>
  <request>
    <method value="PUT"/>
    <url value="Observation/ID1871-lab"/>
  </request>
</entry>
<entry>
  <resource>
    
    
  <Observation>
  <id value="ID1872-lab"/>
    <text>
      <status value="generated"/>
      <div xmlns="http://www.w3.org/1999/xhtml">2009-03-26: Lymphocytes NFr Bld = 34 %</div>
    </text>
    <code>
      <coding>
        <system value="http://loinc.org"/>
        <code value="26478-8"/>
        <display value="Lymphocytes NFr Bld"/>
      </coding>
    </code>
    <valueQuantity>
      <value value="34.0"/>
      <unit value="%"/>
      <system value="http://unitsofmeasure.org" />
      <code value=""/>
    </valueQuantity>
    
    <effectiveDateTime value="2009-03-26"/>
    <status value="final"/>
    <reliability value="ok"/>
    <subject>
      <reference value="Patient/ID629528"/>
    </subject>
    <referenceRange>
      <meaning>
        <coding>
         <system value="http://hl7.org/fhir/referencerange-meaning"/>
         <code value="normal"/>
         <display value="Normal Range"/>
       </coding>
      </meaning>
        <low>
          <value value="20.0"/>
          <unit value="%"/>
          <code value="%"/>
          <system value="http://unitsofmeasure.org"/>
        </low>
        <high>
          <value value="50.0"/>
          <unit value="%"/>
          <code value="%"/>
          <system value="http://unitsofmeasure.org"/>
        </high>
    </referenceRange>
    
  </Observation>
  
  </resource>
  <request>
    <method value="PUT"/>
    <url value="Observation/ID1872-lab"/>
  </request>
</entry>
<entry>
  <resource>
    
    
  <Observation>
  <id value="ID1873-lab"/>
    <text>
      <status value="generated"/>
      <div xmlns="http://www.w3.org/1999/xhtml">2009-03-26: Eosinophil NFr Bld = 3 %</div>
    </text>
    <code>
      <coding>
        <system value="http://loinc.org"/>
        <code value="26450-7"/>
        <display value="Eosinophil NFr Bld"/>
      </coding>
    </code>
    <valueQuantity>
      <value value="3.0"/>
      <unit value="%"/>
      <system value="http://unitsofmeasure.org" />
      <code value=""/>
    </valueQuantity>
    
    <effectiveDateTime value="2009-03-26"/>
    <status value="final"/>
    <reliability value="ok"/>
    <subject>
      <reference value="Patient/ID629528"/>
    </subject>
    <referenceRange>
      <meaning>
        <coding>
         <system value="http://hl7.org/fhir/referencerange-meaning"/>
         <code value="normal"/>
         <display value="Normal Range"/>
       </coding>
      </meaning>
        <low>
          <value value="0.0"/>
          <unit value="%"/>
          <code value="%"/>
          <system value="http://unitsofmeasure.org"/>
        </low>
        <high>
          <value value="7.0"/>
          <unit value="%"/>
          <code value="%"/>
          <system value="http://unitsofmeasure.org"/>
        </high>
    </referenceRange>
    
  </Observation>
  
  </resource>
  <request>
    <method value="PUT"/>
    <url value="Observation/ID1873-lab"/>
  </request>
</entry>
<entry>
  <resource>
    
    
  <Observation>
  <id value="ID1874-lab"/>
    <text>
      <status value="generated"/>
      <div xmlns="http://www.w3.org/1999/xhtml">2009-03-26: Platelet # Bld = 380 10*3/uL</div>
    </text>
    <code>
      <coding>
        <system value="http://loinc.org"/>
        <code value="26515-7"/>
        <display value="Platelet # Bld"/>
      </coding>
    </code>
    <valueQuantity>
      <value value="380.0"/>
      <unit value="10*3/uL"/>
      <system value="http://unitsofmeasure.org" />
      <code value=""/>
    </valueQuantity>
    
    <effectiveDateTime value="2009-03-26"/>
    <status value="final"/>
    <reliability value="ok"/>
    <subject>
      <reference value="Patient/ID629528"/>
    </subject>
    <referenceRange>
      <meaning>
        <coding>
         <system value="http://hl7.org/fhir/referencerange-meaning"/>
         <code value="normal"/>
         <display value="Normal Range"/>
       </coding>
      </meaning>
        <low>
          <value value="150.0"/>
          <unit value="10*3/uL"/>
          <code value="10*3/uL"/>
          <system value="http://unitsofmeasure.org"/>
        </low>
        <high>
          <value value="450.0"/>
          <unit value="10*3/uL"/>
          <code value="10*3/uL"/>
          <system value="http://unitsofmeasure.org"/>
        </high>
    </referenceRange>
    
  </Observation>
  
  </resource>
  <request>
    <method value="PUT"/>
    <url value="Observation/ID1874-lab"/>
  </request>
</entry>
<entry>
  <resource>
    
    
  <Observation>
  <id value="ID1875-lab"/>
    <text>
      <status value="generated"/>
      <div xmlns="http://www.w3.org/1999/xhtml">2009-03-26: MCV RBC = 93.3 fL</div>
    </text>
    <code>
      <coding>
        <system value="http://loinc.org"/>
        <code value="30428-7"/>
        <display value="MCV RBC"/>
      </coding>
    </code>
    <valueQuantity>
      <value value="93.3"/>
      <unit value="fL"/>
      <system value="http://unitsofmeasure.org" />
      <code value=""/>
    </valueQuantity>
    
    <effectiveDateTime value="2009-03-26"/>
    <status value="final"/>
    <reliability value="ok"/>
    <subject>
      <reference value="Patient/ID629528"/>
    </subject>
    <referenceRange>
      <meaning>
        <coding>
         <system value="http://hl7.org/fhir/referencerange-meaning"/>
         <code value="normal"/>
         <display value="Normal Range"/>
       </coding>
      </meaning>
        <low>
          <value value="78.0"/>
          <unit value="fL"/>
          <code value="fL"/>
          <system value="http://unitsofmeasure.org"/>
        </low>
        <high>
          <value value="100.0"/>
          <unit value="fL"/>
          <code value="fL"/>
          <system value="http://unitsofmeasure.org"/>
        </high>
    </referenceRange>
    
  </Observation>
  
  </resource>
  <request>
    <method value="PUT"/>
    <url value="Observation/ID1875-lab"/>
  </request>
</entry>
<entry>
  <resource>
    
    
  <Observation>
  <id value="ID1876-lab"/>
    <text>
      <status value="generated"/>
      <div xmlns="http://www.w3.org/1999/xhtml">2009-03-26: MCH RBC Qn Auto = 30.8 pg</div>
    </text>
    <code>
      <coding>
        <system value="http://loinc.org"/>
        <code value="785-6"/>
        <display value="MCH RBC Qn Auto"/>
      </coding>
    </code>
    <valueQuantity>
      <value value="30.8"/>
      <unit value="pg"/>
      <system value="http://unitsofmeasure.org" />
      <code value=""/>
    </valueQuantity>
    
    <effectiveDateTime value="2009-03-26"/>
    <status value="final"/>
    <reliability value="ok"/>
    <subject>
      <reference value="Patient/ID629528"/>
    </subject>
    <referenceRange>
      <meaning>
        <coding>
         <system value="http://hl7.org/fhir/referencerange-meaning"/>
         <code value="normal"/>
         <display value="Normal Range"/>
       </coding>
      </meaning>
        <low>
          <value value="27.0"/>
          <unit value="pg"/>
          <code value="pg"/>
          <system value="http://unitsofmeasure.org"/>
        </low>
        <high>
          <value value="31.0"/>
          <unit value="pg"/>
          <code value="pg"/>
          <system value="http://unitsofmeasure.org"/>
        </high>
    </referenceRange>
    
  </Observation>
  
  </resource>
  <request>
    <method value="PUT"/>
    <url value="Observation/ID1876-lab"/>
  </request>
</entry>
<entry>
  <resource>
    
    
  <Observation>
  <id value="ID1877-lab"/>
    <text>
      <status value="generated"/>
      <div xmlns="http://www.w3.org/1999/xhtml">2009-03-26: MCHC RBC Auto-mCnc = 33 g/dL</div>
    </text>
    <code>
      <coding>
        <system value="http://loinc.org"/>
        <code value="786-4"/>
        <display value="MCHC RBC Auto-mCnc"/>
      </coding>
    </code>
    <valueQuantity>
      <value value="33.0"/>
      <unit value="g/dL"/>
      <system value="http://unitsofmeasure.org" />
      <code value=""/>
    </valueQuantity>
    
    <effectiveDateTime value="2009-03-26"/>
    <status value="final"/>
    <reliability value="ok"/>
    <subject>
      <reference value="Patient/ID629528"/>
    </subject>
    <referenceRange>
      <meaning>
        <coding>
         <system value="http://hl7.org/fhir/referencerange-meaning"/>
         <code value="normal"/>
         <display value="Normal Range"/>
       </coding>
      </meaning>
        <low>
          <value value="32.0"/>
          <unit value="g/dL"/>
          <code value="g/dL"/>
          <system value="http://unitsofmeasure.org"/>
        </low>
        <high>
          <value value="36.0"/>
          <unit value="g/dL"/>
          <code value="g/dL"/>
          <system value="http://unitsofmeasure.org"/>
        </high>
    </referenceRange>
    
  </Observation>
  
  </resource>
  <request>
    <method value="PUT"/>
    <url value="Observation/ID1877-lab"/>
  </request>
</entry>
<entry>
  <resource>
    
    
  <Observation>
  <id value="ID1878-lab"/>
    <text>
      <status value="generated"/>
      <div xmlns="http://www.w3.org/1999/xhtml">2009-03-26: ALP SerPl-cCnc = 64 U/L</div>
    </text>
    <code>
      <coding>
        <system value="http://loinc.org"/>
        <code value="6768-6"/>
        <display value="ALP SerPl-cCnc"/>
      </coding>
    </code>
    <valueQuantity>
      <value value="64.0"/>
      <unit value="U/L"/>
      <system value="http://unitsofmeasure.org" />
      <code value=""/>
    </valueQuantity>
    
    <effectiveDateTime value="2009-03-26"/>
    <status value="final"/>
    <reliability value="ok"/>
    <subject>
      <reference value="Patient/ID629528"/>
    </subject>
    <referenceRange>
      <meaning>
        <coding>
         <system value="http://hl7.org/fhir/referencerange-meaning"/>
         <code value="normal"/>
         <display value="Normal Range"/>
       </coding>
      </meaning>
        <low>
          <value value="48.0"/>
          <unit value="U/L"/>
          <code value="U/L"/>
          <system value="http://unitsofmeasure.org"/>
        </low>
        <high>
          <value value="138.0"/>
          <unit value="U/L"/>
          <code value="U/L"/>
          <system value="http://unitsofmeasure.org"/>
        </high>
    </referenceRange>
    
  </Observation>
  
  </resource>
  <request>
    <method value="PUT"/>
    <url value="Observation/ID1878-lab"/>
  </request>
</entry>
<entry>
  <resource>
    
    
  <Observation>
  <id value="ID1879-lab"/>
    <text>
      <status value="generated"/>
      <div xmlns="http://www.w3.org/1999/xhtml">2009-03-26: Albumin SerPl-mCnc = 4.3 g/dL</div>
    </text>
    <code>
      <coding>
        <system value="http://loinc.org"/>
        <code value="1751-7"/>
        <display value="Albumin SerPl-mCnc"/>
      </coding>
    </code>
    <valueQuantity>
      <value value="4.3"/>
      <unit value="g/dL"/>
      <system value="http://unitsofmeasure.org" />
      <code value=""/>
    </valueQuantity>
    
    <effectiveDateTime value="2009-03-26"/>
    <status value="final"/>
    <reliability value="ok"/>
    <subject>
      <reference value="Patient/ID629528"/>
    </subject>
    <referenceRange>
      <meaning>
        <coding>
         <system value="http://hl7.org/fhir/referencerange-meaning"/>
         <code value="normal"/>
         <display value="Normal Range"/>
       </coding>
      </meaning>
        <low>
          <value value="3.2"/>
          <unit value="g/dL"/>
          <code value="g/dL"/>
          <system value="http://unitsofmeasure.org"/>
        </low>
        <high>
          <value value="5.2"/>
          <unit value="g/dL"/>
          <code value="g/dL"/>
          <system value="http://unitsofmeasure.org"/>
        </high>
    </referenceRange>
    
  </Observation>
  
  </resource>
  <request>
    <method value="PUT"/>
    <url value="Observation/ID1879-lab"/>
  </request>
</entry>
<entry>
  <resource>
    
    
  <Observation>
  <id value="ID1880-lab"/>
    <text>
      <status value="generated"/>
      <div xmlns="http://www.w3.org/1999/xhtml">2009-03-26: Calcium SerPl-mCnc = 9.4 mg/dL</div>
    </text>
    <code>
      <coding>
        <system value="http://loinc.org"/>
        <code value="17861-6"/>
        <display value="Calcium SerPl-mCnc"/>
      </coding>
    </code>
    <valueQuantity>
      <value value="9.4"/>
      <unit value="mg/dL"/>
      <system value="http://unitsofmeasure.org" />
      <code value=""/>
    </valueQuantity>
    
    <effectiveDateTime value="2009-03-26"/>
    <status value="final"/>
    <reliability value="ok"/>
    <subject>
      <reference value="Patient/ID629528"/>
    </subject>
    <referenceRange>
      <meaning>
        <coding>
         <system value="http://hl7.org/fhir/referencerange-meaning"/>
         <code value="normal"/>
         <display value="Normal Range"/>
       </coding>
      </meaning>
        <low>
          <value value="8.4"/>
          <unit value="mg/dL"/>
          <code value="mg/dL"/>
          <system value="http://unitsofmeasure.org"/>
        </low>
        <high>
          <value value="10.4"/>
          <unit value="mg/dL"/>
          <code value="mg/dL"/>
          <system value="http://unitsofmeasure.org"/>
        </high>
    </referenceRange>
    
  </Observation>
  
  </resource>
  <request>
    <method value="PUT"/>
    <url value="Observation/ID1880-lab"/>
  </request>
</entry>
<entry>
  <resource>
    
    
  <Observation>
  <id value="ID1881-lab"/>
    <text>
      <status value="generated"/>
      <div xmlns="http://www.w3.org/1999/xhtml">2009-03-26: RDW RBC-Rto = 12.7 %</div>
    </text>
    <code>
      <coding>
        <system value="http://loinc.org"/>
        <code value="30385-9"/>
        <display value="RDW RBC-Rto"/>
      </coding>
    </code>
    <valueQuantity>
      <value value="12.7"/>
      <unit value="%"/>
      <system value="http://unitsofmeasure.org" />
      <code value=""/>
    </valueQuantity>
    
    <effectiveDateTime value="2009-03-26"/>
    <status value="final"/>
    <reliability value="ok"/>
    <subject>
      <reference value="Patient/ID629528"/>
    </subject>
    <referenceRange>
      <meaning>
        <coding>
         <system value="http://hl7.org/fhir/referencerange-meaning"/>
         <code value="normal"/>
         <display value="Normal Range"/>
       </coding>
      </meaning>
        <low>
          <value value="11.5"/>
          <unit value="%"/>
          <code value="%"/>
          <system value="http://unitsofmeasure.org"/>
        </low>
        <high>
          <value value="14.0"/>
          <unit value="%"/>
          <code value="%"/>
          <system value="http://unitsofmeasure.org"/>
        </high>
    </referenceRange>
    
  </Observation>
  
  </resource>
  <request>
    <method value="PUT"/>
    <url value="Observation/ID1881-lab"/>
  </request>
</entry>
<entry>
  <resource>
    
    
  <Observation>
  <id value="ID1882-lab"/>
    <text>
      <status value="generated"/>
      <div xmlns="http://www.w3.org/1999/xhtml">2009-03-26: Prot SerPl-mCnc = 7.8 g/dL</div>
    </text>
    <code>
      <coding>
        <system value="http://loinc.org"/>
        <code value="2885-2"/>
        <display value="Prot SerPl-mCnc"/>
      </coding>
    </code>
    <valueQuantity>
      <value value="7.8"/>
      <unit value="g/dL"/>
      <system value="http://unitsofmeasure.org" />
      <code value=""/>
    </valueQuantity>
    
    <effectiveDateTime value="2009-03-26"/>
    <status value="final"/>
    <reliability value="ok"/>
    <subject>
      <reference value="Patient/ID629528"/>
    </subject>
    <referenceRange>
      <meaning>
        <coding>
         <system value="http://hl7.org/fhir/referencerange-meaning"/>
         <code value="normal"/>
         <display value="Normal Range"/>
       </coding>
      </meaning>
        <low>
          <value value="6.0"/>
          <unit value="g/dL"/>
          <code value="g/dL"/>
          <system value="http://unitsofmeasure.org"/>
        </low>
        <high>
          <value value="8.3"/>
          <unit value="g/dL"/>
          <code value="g/dL"/>
          <system value="http://unitsofmeasure.org"/>
        </high>
    </referenceRange>
    
  </Observation>
  
  </resource>
  <request>
    <method value="PUT"/>
    <url value="Observation/ID1882-lab"/>
  </request>
</entry>
<entry>
  <resource>
    
    
  <Observation>
  <id value="ID1883-lab"/>
    <text>
      <status value="generated"/>
      <div xmlns="http://www.w3.org/1999/xhtml">2009-03-26: HDLc SerPl-mCnc = 53 mg/dL</div>
    </text>
    <code>
      <coding>
        <system value="http://loinc.org"/>
        <code value="2085-9"/>
        <display value="HDLc SerPl-mCnc"/>
      </coding>
    </code>
    <valueQuantity>
      <value value="53.0"/>
      <unit value="mg/dL"/>
      <system value="http://unitsofmeasure.org" />
      <code value=""/>
    </valueQuantity>
    
    <effectiveDateTime value="2009-03-26"/>
    <status value="final"/>
    <reliability value="ok"/>
    <subject>
      <reference value="Patient/ID629528"/>
    </subject>
    <referenceRange>
      <meaning>
        <coding>
         <system value="http://hl7.org/fhir/referencerange-meaning"/>
         <code value="normal"/>
         <display value="Normal Range"/>
       </coding>
      </meaning>
        <low>
          <value value="0.0"/>
          <unit value="mg/dL"/>
          <code value="mg/dL"/>
          <system value="http://unitsofmeasure.org"/>
        </low>
        <high>
          <value value="0.0"/>
          <unit value="mg/dL"/>
          <code value="mg/dL"/>
          <system value="http://unitsofmeasure.org"/>
        </high>
    </referenceRange>
    
  </Observation>
  
  </resource>
  <request>
    <method value="PUT"/>
    <url value="Observation/ID1883-lab"/>
  </request>
</entry>
<entry>
  <resource>
    
    
  <Observation>
  <id value="ID1884-lab"/>
    <text>
      <status value="generated"/>
      <div xmlns="http://www.w3.org/1999/xhtml">2009-03-26: LDLc SerPl Calc-mCnc = 124 mg/dL</div>
    </text>
    <code>
      <coding>
        <system value="http://loinc.org"/>
        <code value="13457-7"/>
        <display value="LDLc SerPl Calc-mCnc"/>
      </coding>
    </code>
    <valueQuantity>
      <value value="124.0"/>
      <unit value="mg/dL"/>
      <system value="http://unitsofmeasure.org" />
      <code value=""/>
    </valueQuantity>
    
    <effectiveDateTime value="2009-03-26"/>
    <status value="final"/>
    <reliability value="ok"/>
    <subject>
      <reference value="Patient/ID629528"/>
    </subject>
    <referenceRange>
      <meaning>
        <coding>
         <system value="http://hl7.org/fhir/referencerange-meaning"/>
         <code value="normal"/>
         <display value="Normal Range"/>
       </coding>
      </meaning>
        <low>
          <value value="0.0"/>
          <unit value="mg/dL"/>
          <code value="mg/dL"/>
          <system value="http://unitsofmeasure.org"/>
        </low>
        <high>
          <value value="0.0"/>
          <unit value="mg/dL"/>
          <code value="mg/dL"/>
          <system value="http://unitsofmeasure.org"/>
        </high>
    </referenceRange>
    
  </Observation>
  
  </resource>
  <request>
    <method value="PUT"/>
    <url value="Observation/ID1884-lab"/>
  </request>
</entry>
<entry>
  <resource>
    
    
  <Observation>
  <id value="ID1885-lab"/>
    <text>
      <status value="generated"/>
      <div xmlns="http://www.w3.org/1999/xhtml">2009-03-26: CRP SerPl HS-mCnc = 1.1 mg/L</div>
    </text>
    <code>
      <coding>
        <system value="http://loinc.org"/>
        <code value="30522-7"/>
        <display value="CRP SerPl HS-mCnc"/>
      </coding>
    </code>
    <valueQuantity>
      <value value="1.1"/>
      <unit value="mg/L"/>
      <system value="http://unitsofmeasure.org" />
      <code value=""/>
    </valueQuantity>
    
    <effectiveDateTime value="2009-03-26"/>
    <status value="final"/>
    <reliability value="ok"/>
    <subject>
      <reference value="Patient/ID629528"/>
    </subject>
    <referenceRange>
      <meaning>
        <coding>
         <system value="http://hl7.org/fhir/referencerange-meaning"/>
         <code value="normal"/>
         <display value="Normal Range"/>
       </coding>
      </meaning>
        <low>
          <value value="0.0"/>
          <unit value="mg/L"/>
          <code value="mg/L"/>
          <system value="http://unitsofmeasure.org"/>
        </low>
        <high>
          <value value="3.0"/>
          <unit value="mg/L"/>
          <code value="mg/L"/>
          <system value="http://unitsofmeasure.org"/>
        </high>
    </referenceRange>
    
  </Observation>
  
  </resource>
  <request>
    <method value="PUT"/>
    <url value="Observation/ID1885-lab"/>
  </request>
</entry>
<entry>
  <resource>
    
    
<MedicationOrder>
  <id value="ID1-mp"/>
  <text>
    <status value="generated"/>
    <div xmlns="http://www.w3.org/1999/xhtml">
      Yasmin 28 Day Pack (rxnorm: 748857)
    </div>
  </text>

  <contained>
    <Medication>
      <id value="med"/>
      <name value="Yasmin 28 Day Pack"/>
      <code>
	<coding>
	<system value="http://www.nlm.nih.gov/research/umls/rxnorm"/>
	  <code value="748857"/>
	  <display value="Yasmin 28 Day Pack"/>
	</coding>
      </code>
    </Medication>
  </contained>

  <status value="active" />
  <patient>
    <reference value="Patient/ID629528"/>
  </patient>

  <medication>
    <reference value="#med"/>
  </medication>

  <dosageInstruction>
    <scheduledTiming>
      <repeat>
        <bounds>
          <start value="2006-12-03"/>
        </bounds>
        <frequency value="1"/>
        <duration value="1"/>
        <durationUnits value="d"/>
      </repeat>
      
    </scheduledTiming>
    <doseQuantity>
      <value value="1"/>
      <unit value="{tablet}"/>
      <system value="http://unitsofmeasure.org"/>
      <code value="{tablet}"/>
    </doseQuantity>
    
    <text value="1 daily"/>
  </dosageInstruction>
  <dispense>
     <numberOfRepeatsAllowed value="1"/>
     
     <quantity>
        <value value="28"/>
        <unit value="{tablet}"/>
        <system value="http://unitsofmeasure.org"/>
        <code value="{tablet}"/>
     </quantity>
     
     <expectedSupplyDuration>
        <value value="28"/>
        <unit value="days"/>
        <system value="http://unitsofmeasure.org"/>
        <code value="d"/>
     </expectedSupplyDuration>
     
  </dispense>
  
</MedicationOrder>

  </resource>
  <request>
    <method value="PUT"/>
    <url value="MedicationOrder/ID1-mp"/>
  </request>
</entry>
<entry>
  <resource>
    
    
<MedicationDispense>
  <id value="ID630-md"/>
  <!--  insert contents here  -->
   <text>
    <status value="generated"/>
    <div xmlns="http://www.w3.org/1999/xhtml">
      Dispensed 63 tablets = 63 day supply of Yasmin 28 Day Pack
    </div>
  </text>  

  <contained>
    <Medication>
      <id value="med"/>
      <name value="Yasmin 28 Day Pack"/>
      <code>
	<coding>
	<system value="http://www.nlm.nih.gov/research/umls/rxnorm"/>
	  <code value="748857"/>
	  <display value="Yasmin 28 Day Pack"/>
	</coding>
      </code>
    </Medication>
  </contained>
  
  <status value="completed"/>

  <patient>
    <reference value="Patient/ID629528"/>
  </patient>

  <authorizingPrescription>
    <reference value="MedicationOrder/ID1-mp"/>
  </authorizingPrescription>

  <quantity>
      <value value="63"/>
      <unit value="tablets"/>
      <system value="http://unitsofmeasure.org"/>
      <code value="{tablets}"/>
  </quantity>

  <daysSupply>
      <value value="63" />
      <unit value="days" />
      <system value="http://unitsofmeasure.org" />
      <code value="d" />
  </daysSupply>

  <medication>
      <reference value="#med"/>
  </medication>

  <whenHandedOver value="2007-06-17"/>

</MedicationDispense>

  </resource>
  <request>
    <method value="PUT"/>
    <url value="MedicationDispense/ID630-md"/>
  </request>
</entry>
<entry>
  <resource>
    
    
<MedicationDispense>
  <id value="ID628-md"/>
  <!--  insert contents here  -->
   <text>
    <status value="generated"/>
    <div xmlns="http://www.w3.org/1999/xhtml">
      Dispensed 63 tablets = 63 day supply of Yasmin 28 Day Pack
    </div>
  </text>  

  <contained>
    <Medication>
      <id value="med"/>
      <name value="Yasmin 28 Day Pack"/>
      <code>
	<coding>
	<system value="http://www.nlm.nih.gov/research/umls/rxnorm"/>
	  <code value="748857"/>
	  <display value="Yasmin 28 Day Pack"/>
	</coding>
      </code>
    </Medication>
  </contained>
  
  <status value="completed"/>

  <patient>
    <reference value="Patient/ID629528"/>
  </patient>

  <authorizingPrescription>
    <reference value="MedicationOrder/ID1-mp"/>
  </authorizingPrescription>

  <quantity>
      <value value="63"/>
      <unit value="tablets"/>
      <system value="http://unitsofmeasure.org"/>
      <code value="{tablets}"/>
  </quantity>

  <daysSupply>
      <value value="63" />
      <unit value="days" />
      <system value="http://unitsofmeasure.org" />
      <code value="d" />
  </daysSupply>

  <medication>
      <reference value="#med"/>
  </medication>

  <whenHandedOver value="2007-01-31"/>

</MedicationDispense>

  </resource>
  <request>
    <method value="PUT"/>
    <url value="MedicationDispense/ID628-md"/>
  </request>
</entry>
<entry>
  <resource>
    
    
<MedicationDispense>
  <id value="ID629-md"/>
  <!--  insert contents here  -->
   <text>
    <status value="generated"/>
    <div xmlns="http://www.w3.org/1999/xhtml">
      Dispensed 63 tablets = 63 day supply of Yasmin 28 Day Pack
    </div>
  </text>  

  <contained>
    <Medication>
      <id value="med"/>
      <name value="Yasmin 28 Day Pack"/>
      <code>
	<coding>
	<system value="http://www.nlm.nih.gov/research/umls/rxnorm"/>
	  <code value="748857"/>
	  <display value="Yasmin 28 Day Pack"/>
	</coding>
      </code>
    </Medication>
  </contained>
  
  <status value="completed"/>

  <patient>
    <reference value="Patient/ID629528"/>
  </patient>

  <authorizingPrescription>
    <reference value="MedicationOrder/ID1-mp"/>
  </authorizingPrescription>

  <quantity>
      <value value="63"/>
      <unit value="tablets"/>
      <system value="http://unitsofmeasure.org"/>
      <code value="{tablets}"/>
  </quantity>

  <daysSupply>
      <value value="63" />
      <unit value="days" />
      <system value="http://unitsofmeasure.org" />
      <code value="d" />
  </daysSupply>

  <medication>
      <reference value="#med"/>
  </medication>

  <whenHandedOver value="2007-04-17"/>

</MedicationDispense>

  </resource>
  <request>
    <method value="PUT"/>
    <url value="MedicationDispense/ID629-md"/>
  </request>
</entry>
<entry>
  <resource>
    
    
<MedicationDispense>
  <id value="ID632-md"/>
  <!--  insert contents here  -->
   <text>
    <status value="generated"/>
    <div xmlns="http://www.w3.org/1999/xhtml">
      Dispensed 63 tablets = 63 day supply of Yasmin 28 Day Pack
    </div>
  </text>  

  <contained>
    <Medication>
      <id value="med"/>
      <name value="Yasmin 28 Day Pack"/>
      <code>
	<coding>
	<system value="http://www.nlm.nih.gov/research/umls/rxnorm"/>
	  <code value="748857"/>
	  <display value="Yasmin 28 Day Pack"/>
	</coding>
      </code>
    </Medication>
  </contained>
  
  <status value="completed"/>

  <patient>
    <reference value="Patient/ID629528"/>
  </patient>

  <authorizingPrescription>
    <reference value="MedicationOrder/ID1-mp"/>
  </authorizingPrescription>

  <quantity>
      <value value="63"/>
      <unit value="tablets"/>
      <system value="http://unitsofmeasure.org"/>
      <code value="{tablets}"/>
  </quantity>

  <daysSupply>
      <value value="63" />
      <unit value="days" />
      <system value="http://unitsofmeasure.org" />
      <code value="d" />
  </daysSupply>

  <medication>
      <reference value="#med"/>
  </medication>

  <whenHandedOver value="2007-11-05"/>

</MedicationDispense>

  </resource>
  <request>
    <method value="PUT"/>
    <url value="MedicationDispense/ID632-md"/>
  </request>
</entry>
<entry>
  <resource>
    
    
<MedicationDispense>
  <id value="ID631-md"/>
  <!--  insert contents here  -->
   <text>
    <status value="generated"/>
    <div xmlns="http://www.w3.org/1999/xhtml">
      Dispensed 63 tablets = 63 day supply of Yasmin 28 Day Pack
    </div>
  </text>  

  <contained>
    <Medication>
      <id value="med"/>
      <name value="Yasmin 28 Day Pack"/>
      <code>
	<coding>
	<system value="http://www.nlm.nih.gov/research/umls/rxnorm"/>
	  <code value="748857"/>
	  <display value="Yasmin 28 Day Pack"/>
	</coding>
      </code>
    </Medication>
  </contained>
  
  <status value="completed"/>

  <patient>
    <reference value="Patient/ID629528"/>
  </patient>

  <authorizingPrescription>
    <reference value="MedicationOrder/ID1-mp"/>
  </authorizingPrescription>

  <quantity>
      <value value="63"/>
      <unit value="tablets"/>
      <system value="http://unitsofmeasure.org"/>
      <code value="{tablets}"/>
  </quantity>

  <daysSupply>
      <value value="63" />
      <unit value="days" />
      <system value="http://unitsofmeasure.org" />
      <code value="d" />
  </daysSupply>

  <medication>
      <reference value="#med"/>
  </medication>

  <whenHandedOver value="2007-09-03"/>

</MedicationDispense>

  </resource>
  <request>
    <method value="PUT"/>
    <url value="MedicationDispense/ID631-md"/>
  </request>
</entry>
<entry>
  <resource>
    
    
<MedicationDispense>
  <id value="ID627-md"/>
  <!--  insert contents here  -->
   <text>
    <status value="generated"/>
    <div xmlns="http://www.w3.org/1999/xhtml">
      Dispensed 63 tablets = 63 day supply of Yasmin 28 Day Pack
    </div>
  </text>  

  <contained>
    <Medication>
      <id value="med"/>
      <name value="Yasmin 28 Day Pack"/>
      <code>
	<coding>
	<system value="http://www.nlm.nih.gov/research/umls/rxnorm"/>
	  <code value="748857"/>
	  <display value="Yasmin 28 Day Pack"/>
	</coding>
      </code>
    </Medication>
  </contained>
  
  <status value="completed"/>

  <patient>
    <reference value="Patient/ID629528"/>
  </patient>

  <authorizingPrescription>
    <reference value="MedicationOrder/ID1-mp"/>
  </authorizingPrescription>

  <quantity>
      <value value="63"/>
      <unit value="tablets"/>
      <system value="http://unitsofmeasure.org"/>
      <code value="{tablets}"/>
  </quantity>

  <daysSupply>
      <value value="63" />
      <unit value="days" />
      <system value="http://unitsofmeasure.org" />
      <code value="d" />
  </daysSupply>

  <medication>
      <reference value="#med"/>
  </medication>

  <whenHandedOver value="2006-12-03"/>

</MedicationDispense>

  </resource>
  <request>
    <method value="PUT"/>
    <url value="MedicationDispense/ID627-md"/>
  </request>
</entry>
<entry>
  <resource>
    
    
<MedicationOrder>
  <id value="ID2-mp"/>
  <text>
    <status value="generated"/>
    <div xmlns="http://www.w3.org/1999/xhtml">
      Escitalopram 10 MG Oral Tablet [Lexapro] (rxnorm: 352272)
    </div>
  </text>

  <contained>
    <Medication>
      <id value="med"/>
      <name value="Escitalopram 10 MG Oral Tablet [Lexapro]"/>
      <code>
	<coding>
	<system value="http://www.nlm.nih.gov/research/umls/rxnorm"/>
	  <code value="352272"/>
	  <display value="Escitalopram 10 MG Oral Tablet [Lexapro]"/>
	</coding>
      </code>
    </Medication>
  </contained>

  <status value="active" />
  <patient>
    <reference value="Patient/ID629528"/>
  </patient>

  <medication>
    <reference value="#med"/>
  </medication>

  <dosageInstruction>
    <scheduledTiming>
      <repeat>
        <bounds>
          <start value="2006-12-14"/>
        </bounds>
        <frequency value="1"/>
        <duration value="1"/>
        <durationUnits value="d"/>
      </repeat>
      
    </scheduledTiming>
    <doseQuantity>
      <value value="1"/>
      <unit value="{tablet}"/>
      <system value="http://unitsofmeasure.org"/>
      <code value="{tablet}"/>
    </doseQuantity>
    
    <text value="1 daily"/>
  </dosageInstruction>
  <dispense>
     <numberOfRepeatsAllowed value="1"/>
     
     <quantity>
        <value value="90"/>
        <unit value="{tablet}"/>
        <system value="http://unitsofmeasure.org"/>
        <code value="{tablet}"/>
     </quantity>
     
     <expectedSupplyDuration>
        <value value="90"/>
        <unit value="days"/>
        <system value="http://unitsofmeasure.org"/>
        <code value="d"/>
     </expectedSupplyDuration>
     
  </dispense>
  
</MedicationOrder>

  </resource>
  <request>
    <method value="PUT"/>
    <url value="MedicationOrder/ID2-mp"/>
  </request>
</entry>
<entry>
  <resource>
    
    
<MedicationDispense>
  <id value="ID623-md"/>
  <!--  insert contents here  -->
   <text>
    <status value="generated"/>
    <div xmlns="http://www.w3.org/1999/xhtml">
      Dispensed 90 tablets = 90 day supply of Escitalopram 10 MG Oral Tablet [Lexapro]
    </div>
  </text>  

  <contained>
    <Medication>
      <id value="med"/>
      <name value="Escitalopram 10 MG Oral Tablet [Lexapro]"/>
      <code>
	<coding>
	<system value="http://www.nlm.nih.gov/research/umls/rxnorm"/>
	  <code value="352272"/>
	  <display value="Escitalopram 10 MG Oral Tablet [Lexapro]"/>
	</coding>
      </code>
    </Medication>
  </contained>
  
  <status value="completed"/>

  <patient>
    <reference value="Patient/ID629528"/>
  </patient>

  <authorizingPrescription>
    <reference value="MedicationOrder/ID2-mp"/>
  </authorizingPrescription>

  <quantity>
      <value value="90"/>
      <unit value="tablets"/>
      <system value="http://unitsofmeasure.org"/>
      <code value="{tablets}"/>
  </quantity>

  <daysSupply>
      <value value="90" />
      <unit value="days" />
      <system value="http://unitsofmeasure.org" />
      <code value="d" />
  </daysSupply>

  <medication>
      <reference value="#med"/>
  </medication>

  <whenHandedOver value="2006-12-14"/>

</MedicationDispense>

  </resource>
  <request>
    <method value="PUT"/>
    <url value="MedicationDispense/ID623-md"/>
  </request>
</entry>
<entry>
  <resource>
    
    
<MedicationDispense>
  <id value="ID624-md"/>
  <!--  insert contents here  -->
   <text>
    <status value="generated"/>
    <div xmlns="http://www.w3.org/1999/xhtml">
      Dispensed 90 tablets = 90 day supply of Escitalopram 10 MG Oral Tablet [Lexapro]
    </div>
  </text>  

  <contained>
    <Medication>
      <id value="med"/>
      <name value="Escitalopram 10 MG Oral Tablet [Lexapro]"/>
      <code>
	<coding>
	<system value="http://www.nlm.nih.gov/research/umls/rxnorm"/>
	  <code value="352272"/>
	  <display value="Escitalopram 10 MG Oral Tablet [Lexapro]"/>
	</coding>
      </code>
    </Medication>
  </contained>
  
  <status value="completed"/>

  <patient>
    <reference value="Patient/ID629528"/>
  </patient>

  <authorizingPrescription>
    <reference value="MedicationOrder/ID2-mp"/>
  </authorizingPrescription>

  <quantity>
      <value value="90"/>
      <unit value="tablets"/>
      <system value="http://unitsofmeasure.org"/>
      <code value="{tablets}"/>
  </quantity>

  <daysSupply>
      <value value="90" />
      <unit value="days" />
      <system value="http://unitsofmeasure.org" />
      <code value="d" />
  </daysSupply>

  <medication>
      <reference value="#med"/>
  </medication>

  <whenHandedOver value="2007-03-25"/>

</MedicationDispense>

  </resource>
  <request>
    <method value="PUT"/>
    <url value="MedicationDispense/ID624-md"/>
  </request>
</entry>
<entry>
  <resource>
    
    
<MedicationDispense>
  <id value="ID626-md"/>
  <!--  insert contents here  -->
   <text>
    <status value="generated"/>
    <div xmlns="http://www.w3.org/1999/xhtml">
      Dispensed 90 tablets = 90 day supply of Escitalopram 10 MG Oral Tablet [Lexapro]
    </div>
  </text>  

  <contained>
    <Medication>
      <id value="med"/>
      <name value="Escitalopram 10 MG Oral Tablet [Lexapro]"/>
      <code>
	<coding>
	<system value="http://www.nlm.nih.gov/research/umls/rxnorm"/>
	  <code value="352272"/>
	  <display value="Escitalopram 10 MG Oral Tablet [Lexapro]"/>
	</coding>
      </code>
    </Medication>
  </contained>
  
  <status value="completed"/>

  <patient>
    <reference value="Patient/ID629528"/>
  </patient>

  <authorizingPrescription>
    <reference value="MedicationOrder/ID2-mp"/>
  </authorizingPrescription>

  <quantity>
      <value value="90"/>
      <unit value="tablets"/>
      <system value="http://unitsofmeasure.org"/>
      <code value="{tablets}"/>
  </quantity>

  <daysSupply>
      <value value="90" />
      <unit value="days" />
      <system value="http://unitsofmeasure.org" />
      <code value="d" />
  </daysSupply>

  <medication>
      <reference value="#med"/>
  </medication>

  <whenHandedOver value="2007-09-25"/>

</MedicationDispense>

  </resource>
  <request>
    <method value="PUT"/>
    <url value="MedicationDispense/ID626-md"/>
  </request>
</entry>
<entry>
  <resource>
    
    
<MedicationDispense>
  <id value="ID625-md"/>
  <!--  insert contents here  -->
   <text>
    <status value="generated"/>
    <div xmlns="http://www.w3.org/1999/xhtml">
      Dispensed 90 tablets = 90 day supply of Escitalopram 10 MG Oral Tablet [Lexapro]
    </div>
  </text>  

  <contained>
    <Medication>
      <id value="med"/>
      <name value="Escitalopram 10 MG Oral Tablet [Lexapro]"/>
      <code>
	<coding>
	<system value="http://www.nlm.nih.gov/research/umls/rxnorm"/>
	  <code value="352272"/>
	  <display value="Escitalopram 10 MG Oral Tablet [Lexapro]"/>
	</coding>
      </code>
    </Medication>
  </contained>
  
  <status value="completed"/>

  <patient>
    <reference value="Patient/ID629528"/>
  </patient>

  <authorizingPrescription>
    <reference value="MedicationOrder/ID2-mp"/>
  </authorizingPrescription>

  <quantity>
      <value value="90"/>
      <unit value="tablets"/>
      <system value="http://unitsofmeasure.org"/>
      <code value="{tablets}"/>
  </quantity>

  <daysSupply>
      <value value="90" />
      <unit value="days" />
      <system value="http://unitsofmeasure.org" />
      <code value="d" />
  </daysSupply>

  <medication>
      <reference value="#med"/>
  </medication>

  <whenHandedOver value="2007-06-14"/>

</MedicationDispense>

  </resource>
  <request>
    <method value="PUT"/>
    <url value="MedicationDispense/ID625-md"/>
  </request>
</entry>
  <entry>
  <resource>
    
    
  <Condition>
  <id value="ID336-c"/>
    <text>
     <status value="generated"/>
     <div xmlns="http://www.w3.org/1999/xhtml">Depressive disorder</div>   
   </text>
    <patient>
      <reference value="Patient/ID629528"/>
    </patient>
    <code> 
      <coding>
        <system value="http://snomed.info/sct"/>
        <code value="35489007"/>
        <display value="Depressive disorder"/>
      </coding>
      <text value="Depressive disorder"/>
    </code>
   <clinicalStatus value="confirmed"/>
   <onsetDateTime value="2007-02-06"/>
   
  </Condition>
  
  </resource>
  <request>
    <method value="PUT"/>
    <url value="Condition/ID336-c"/>
  </request>
</entry>
  <entry>
  <resource>
    
    
  <Condition>
  <id value="ID337-c"/>
    <text>
     <status value="generated"/>
     <div xmlns="http://www.w3.org/1999/xhtml">Cervical intraepithelial neoplasia grade 1</div>   
   </text>
    <patient>
      <reference value="Patient/ID629528"/>
    </patient>
    <code> 
      <coding>
        <system value="http://snomed.info/sct"/>
        <code value="285836003"/>
        <display value="Cervical intraepithelial neoplasia grade 1"/>
      </coding>
      <text value="Cervical intraepithelial neoplasia grade 1"/>
    </code>
   <clinicalStatus value="confirmed"/>
   <onsetDateTime value="2007-11-20"/>
   
  </Condition>
  
  </resource>
  <request>
    <method value="PUT"/>
    <url value="Condition/ID337-c"/>
  </request>
</entry>
  <entry>
  <resource>
    
    
  <Condition>
  <id value="ID338-c"/>
    <text>
     <status value="generated"/>
     <div xmlns="http://www.w3.org/1999/xhtml">Cervicitis and endocervicitis</div>   
   </text>
    <patient>
      <reference value="Patient/ID629528"/>
    </patient>
    <code> 
      <coding>
        <system value="http://snomed.info/sct"/>
        <code value="237084006"/>
        <display value="Cervicitis and endocervicitis"/>
      </coding>
      <text value="Cervicitis and endocervicitis"/>
    </code>
   <clinicalStatus value="confirmed"/>
   <onsetDateTime value="2007-11-20"/>
   
  </Condition>
  
  </resource>
  <request>
    <method value="PUT"/>
    <url value="Condition/ID338-c"/>
  </request>
</entry>
  <entry>
  <resource>
    
    
  <Condition>
  <id value="ID339-c"/>
    <text>
     <status value="generated"/>
     <div xmlns="http://www.w3.org/1999/xhtml">Human papilloma virus infection</div>   
   </text>
    <patient>
      <reference value="Patient/ID629528"/>
    </patient>
    <code> 
      <coding>
        <system value="http://snomed.info/sct"/>
        <code value="240532009"/>
        <display value="Human papilloma virus infection"/>
      </coding>
      <text value="Human papilloma virus infection"/>
    </code>
   <clinicalStatus value="confirmed"/>
   <onsetDateTime value="2007-11-20"/>
   
  </Condition>
  
  </resource>
  <request>
    <method value="PUT"/>
    <url value="Condition/ID339-c"/>
  </request>
</entry>
  <entry>
  <resource>
    
    
  <Condition>
  <id value="ID340-c"/>
    <text>
     <status value="generated"/>
     <div xmlns="http://www.w3.org/1999/xhtml">Papanicolaou smear of cervix with atypical squamous cells of undetermined significance (ASC-US)</div>   
   </text>
    <patient>
      <reference value="Patient/ID629528"/>
    </patient>
    <code> 
      <coding>
        <system value="http://snomed.info/sct"/>
        <code value="441087007"/>
        <display value="Papanicolaou smear of cervix with atypical squamous cells of undetermined significance (ASC-US)"/>
      </coding>
      <text value="Papanicolaou smear of cervix with atypical squamous cells of undetermined significance (ASC-US)"/>
    </code>
   <clinicalStatus value="confirmed"/>
   <onsetDateTime value="2007-11-20"/>
   
  </Condition>
  
  </resource>
  <request>
    <method value="PUT"/>
    <url value="Condition/ID340-c"/>
  </request>
</entry>
<entry>
  <resource>
    
    
  <Observation>
  <id value="ID41-smokingstatus"/>
    <text>
      <status value="generated"/>
      <div xmlns="http://www.w3.org/1999/xhtml">Tobacco smoking status: Current some day smoker</div>
    </text>
    <code>
      <coding>
        <system value="http://loinc.org"/>
        <code value="72166-2"/>
        <display value="Tobacco smoking status"/>
      </coding>
    </code>
    <valueCodeableConcept>
      <coding>
        <system value="http://snomed.info/sct"/>
        <code value="428041000124106"/>
        <display value="Current some day smoker"/>
      </coding>
    </valueCodeableConcept>
    <status value="final"/>
    <reliability value="ok"/>
    <subject>
      <reference value="Patient/ID629528"/>
    </subject>
  </Observation>
  
  </resource>
  <request>
    <method value="PUT"/>
    <url value="Observation/ID41-smokingstatus"/>
  </request>
</entry>
<entry>
  <resource>
    
    
  <Observation>
  <id value="ID629528-gestage"/>
    <text>
      <status value="generated"/>
      <div xmlns="http://www.w3.org/1999/xhtml">1981-10-27: Gestational age at birth = 35.7 weeks</div>
    </text>
    <code>
      <coding>
        <system value="http://loinc.org"/>
        <code value="18185-9"/>
        <display value="Gestational age at birth"/>
      </coding>
    </code>
    <valueQuantity>
      <value value="35.7"/>
      <unit value="weeks"/>
      <system value="http://unitsofmeasure.org" />
      <code value="wk"/>
    </valueQuantity>
    
    <effectiveDateTime value="1981-10-27"/>
    <status value="final"/>
    <reliability value="ok"/>
    <subject>
      <reference value="Patient/ID629528"/>
    </subject>
  </Observation>
  
  </resource>
  <request>
    <method value="PUT"/>
    <url value="Observation/ID629528-gestage"/>
  </request>
</entry>
  <entry>
  <resource>
    
    
    <List>
  <id value="ID4-l"/>
        <text>
            <status value="generated"/>
            <div xmlns="http://www.w3.org/1999/xhtml">No known allergies</div>
        </text>
        <code>
            <coding>
               <system value="http://loinc.org/"/>
               <code value="52473-6"/>
               <display value="Allergy"/>
            </coding>
        </code>
        <subject>
          <reference value="Patient/ID629528"/>
        </subject>
        <date value="2000"/>
        <mode value="snapshot"/>
        <emptyReason>
            <coding>
                <system value="http://hl7.org/fhir/list-empty-reason"/>
                <code value="nilknown"/>
                <display value="Nil Known"/>
            </coding>
        </emptyReason>
    </List>
  
  </resource>
  <request>
    <method value="PUT"/>
    <url value="List/ID4-l"/>
  </request>
</entry>

</Bundle>
