<?xml version="1.0" encoding="UTF-8"?>
<Bundle xmlns="http://hl7.org/fhir">
    <type value="transaction"/>

  <entry>
  <resource>
    
    
  <Patient>
    <id value="ID1768562"/>
    <text>
      <status value="generated"/>
      <div xmlns="http://www.w3.org/1999/xhtml">
        <p>Carl Lee</p>
      </div>
    </text>
    <identifier>
      <use value="usual"/>
      <type>
        <coding>
          <system value="http://hl7.org/fhir/v2/0203"/>
          <code value="MR"/>
          <display value="Medical record number"/>
        </coding>
      </type>
      <system value="http://hospital.smarthealthit.org"/>
      <value value="1768562"/>
    </identifier>
    <name>
      <use value="official"/>
      <family value="Lee"/>
      <given value="Carl"/>
      <given value="U."/>
    </name>
    <telecom>
      <system value="email"/>
      <value value="carl.lee@example.com"/>
    </telecom>
    <gender value="male" />
    <birthDate value="1939-08-30" />
    <address>
      <use value="home"/>
      <line value="11 Sunset Rd"/>
      <city value="Mounds"/>
      <state value="OK"/>
      <postalCode value="74047"/>
      <country value="USA"/>
    </address>
    <active value="true"/>
  </Patient>
  
  </resource>
  <request>
    <method value="PUT"/>
    <url value="Patient/ID1768562"/>
  </request>
</entry>
<entry>
  <resource>
    
    
  <Observation>
  <id value="ID1457-lab"/>
    <text>
      <status value="generated"/>
      <div xmlns="http://www.w3.org/1999/xhtml">2003-11-30: Platelet # Bld = 222 10*3/uL</div>
    </text>
    <code>
      <coding>
        <system value="http://loinc.org"/>
        <code value="26515-7"/>
        <display value="Platelet # Bld"/>
      </coding>
    </code>
    <valueQuantity>
      <value value="222.0"/>
      <unit value="10*3/uL"/>
      <system value="http://unitsofmeasure.org" />
      <code value=""/>
    </valueQuantity>
    
    <effectiveDateTime value="2003-11-30"/>
    <status value="final"/>
    <reliability value="ok"/>
    <subject>
      <reference value="Patient/ID1768562"/>
    </subject>
    <referenceRange>
      <meaning>
        <coding>
         <system value="http://hl7.org/fhir/referencerange-meaning"/>
         <code value="normal"/>
         <display value="Normal Range"/>
       </coding>
      </meaning>
        <low>
          <value value="150.0"/>
          <unit value="10*3/uL"/>
          <code value="10*3/uL"/>
          <system value="http://unitsofmeasure.org"/>
        </low>
        <high>
          <value value="450.0"/>
          <unit value="10*3/uL"/>
          <code value="10*3/uL"/>
          <system value="http://unitsofmeasure.org"/>
        </high>
    </referenceRange>
    
  </Observation>
  
  </resource>
  <request>
    <method value="PUT"/>
    <url value="Observation/ID1457-lab"/>
  </request>
</entry>
<entry>
  <resource>
    
    
  <Observation>
  <id value="ID1458-lab"/>
    <text>
      <status value="generated"/>
      <div xmlns="http://www.w3.org/1999/xhtml">2003-11-30: Calcium SerPl-mCnc = 9.4 mg/dL</div>
    </text>
    <code>
      <coding>
        <system value="http://loinc.org"/>
        <code value="17861-6"/>
        <display value="Calcium SerPl-mCnc"/>
      </coding>
    </code>
    <valueQuantity>
      <value value="9.4"/>
      <unit value="mg/dL"/>
      <system value="http://unitsofmeasure.org" />
      <code value=""/>
    </valueQuantity>
    
    <effectiveDateTime value="2003-11-30"/>
    <status value="final"/>
    <reliability value="ok"/>
    <subject>
      <reference value="Patient/ID1768562"/>
    </subject>
    <referenceRange>
      <meaning>
        <coding>
         <system value="http://hl7.org/fhir/referencerange-meaning"/>
         <code value="normal"/>
         <display value="Normal Range"/>
       </coding>
      </meaning>
        <low>
          <value value="8.4"/>
          <unit value="mg/dL"/>
          <code value="mg/dL"/>
          <system value="http://unitsofmeasure.org"/>
        </low>
        <high>
          <value value="10.2"/>
          <unit value="mg/dL"/>
          <code value="mg/dL"/>
          <system value="http://unitsofmeasure.org"/>
        </high>
    </referenceRange>
    
  </Observation>
  
  </resource>
  <request>
    <method value="PUT"/>
    <url value="Observation/ID1458-lab"/>
  </request>
</entry>
<entry>
  <resource>
    
    
  <Observation>
  <id value="ID1459-lab"/>
    <text>
      <status value="generated"/>
      <div xmlns="http://www.w3.org/1999/xhtml">2003-11-30: RDW RBC-Rto = 13.5 %</div>
    </text>
    <code>
      <coding>
        <system value="http://loinc.org"/>
        <code value="30385-9"/>
        <display value="RDW RBC-Rto"/>
      </coding>
    </code>
    <valueQuantity>
      <value value="13.5"/>
      <unit value="%"/>
      <system value="http://unitsofmeasure.org" />
      <code value=""/>
    </valueQuantity>
    
    <effectiveDateTime value="2003-11-30"/>
    <status value="final"/>
    <reliability value="ok"/>
    <subject>
      <reference value="Patient/ID1768562"/>
    </subject>
    <referenceRange>
      <meaning>
        <coding>
         <system value="http://hl7.org/fhir/referencerange-meaning"/>
         <code value="normal"/>
         <display value="Normal Range"/>
       </coding>
      </meaning>
        <low>
          <value value="11.5"/>
          <unit value="%"/>
          <code value="%"/>
          <system value="http://unitsofmeasure.org"/>
        </low>
        <high>
          <value value="14.0"/>
          <unit value="%"/>
          <code value="%"/>
          <system value="http://unitsofmeasure.org"/>
        </high>
    </referenceRange>
    
  </Observation>
  
  </resource>
  <request>
    <method value="PUT"/>
    <url value="Observation/ID1459-lab"/>
  </request>
</entry>
<entry>
  <resource>
    
    
  <Observation>
  <id value="ID1460-lab"/>
    <text>
      <status value="generated"/>
      <div xmlns="http://www.w3.org/1999/xhtml">2003-11-30: PMV Bld = 7.6 fL</div>
    </text>
    <code>
      <coding>
        <system value="http://loinc.org"/>
        <code value="28542-9"/>
        <display value="PMV Bld"/>
      </coding>
    </code>
    <valueQuantity>
      <value value="7.6"/>
      <unit value="fL"/>
      <system value="http://unitsofmeasure.org" />
      <code value=""/>
    </valueQuantity>
    
    <effectiveDateTime value="2003-11-30"/>
    <status value="final"/>
    <reliability value="ok"/>
    <subject>
      <reference value="Patient/ID1768562"/>
    </subject>
    <referenceRange>
      <meaning>
        <coding>
         <system value="http://hl7.org/fhir/referencerange-meaning"/>
         <code value="normal"/>
         <display value="Normal Range"/>
       </coding>
      </meaning>
        <low>
          <value value="6.0"/>
          <unit value="fL"/>
          <code value="fL"/>
          <system value="http://unitsofmeasure.org"/>
        </low>
        <high>
          <value value="9.5"/>
          <unit value="fL"/>
          <code value="fL"/>
          <system value="http://unitsofmeasure.org"/>
        </high>
    </referenceRange>
    
  </Observation>
  
  </resource>
  <request>
    <method value="PUT"/>
    <url value="Observation/ID1460-lab"/>
  </request>
</entry>
<entry>
  <resource>
    
    
  <Observation>
  <id value="ID1461-lab"/>
    <text>
      <status value="generated"/>
      <div xmlns="http://www.w3.org/1999/xhtml">2003-11-30: BNP SerPl-mCnc = 834 pg/mL</div>
    </text>
    <code>
      <coding>
        <system value="http://loinc.org"/>
        <code value="30934-4"/>
        <display value="BNP SerPl-mCnc"/>
      </coding>
    </code>
    <valueQuantity>
      <value value="834.0"/>
      <unit value="pg/mL"/>
      <system value="http://unitsofmeasure.org" />
      <code value=""/>
    </valueQuantity>
    
    <effectiveDateTime value="2003-11-30"/>
    <status value="final"/>
    <reliability value="ok"/>
    <subject>
      <reference value="Patient/ID1768562"/>
    </subject>
    <referenceRange>
      <meaning>
        <coding>
         <system value="http://hl7.org/fhir/referencerange-meaning"/>
         <code value="normal"/>
         <display value="Normal Range"/>
       </coding>
      </meaning>
        <low>
          <value value="0.0"/>
          <unit value="pg/mL"/>
          <code value="pg/mL"/>
          <system value="http://unitsofmeasure.org"/>
        </low>
        <high>
          <value value="100.0"/>
          <unit value="pg/mL"/>
          <code value="pg/mL"/>
          <system value="http://unitsofmeasure.org"/>
        </high>
    </referenceRange>
    
  </Observation>
  
  </resource>
  <request>
    <method value="PUT"/>
    <url value="Observation/ID1461-lab"/>
  </request>
</entry>
<entry>
  <resource>
    
    
  <Observation>
  <id value="ID1462-lab"/>
    <text>
      <status value="generated"/>
      <div xmlns="http://www.w3.org/1999/xhtml">2003-11-30: BUN SerPl-mCnc = 17 mg/dL</div>
    </text>
    <code>
      <coding>
        <system value="http://loinc.org"/>
        <code value="3094-0"/>
        <display value="BUN SerPl-mCnc"/>
      </coding>
    </code>
    <valueQuantity>
      <value value="17.0"/>
      <unit value="mg/dL"/>
      <system value="http://unitsofmeasure.org" />
      <code value=""/>
    </valueQuantity>
    
    <effectiveDateTime value="2003-11-30"/>
    <status value="final"/>
    <reliability value="ok"/>
    <subject>
      <reference value="Patient/ID1768562"/>
    </subject>
    <referenceRange>
      <meaning>
        <coding>
         <system value="http://hl7.org/fhir/referencerange-meaning"/>
         <code value="normal"/>
         <display value="Normal Range"/>
       </coding>
      </meaning>
        <low>
          <value value="9.0"/>
          <unit value="mg/dL"/>
          <code value="mg/dL"/>
          <system value="http://unitsofmeasure.org"/>
        </low>
        <high>
          <value value="20.0"/>
          <unit value="mg/dL"/>
          <code value="mg/dL"/>
          <system value="http://unitsofmeasure.org"/>
        </high>
    </referenceRange>
    
  </Observation>
  
  </resource>
  <request>
    <method value="PUT"/>
    <url value="Observation/ID1462-lab"/>
  </request>
</entry>
<entry>
  <resource>
    
    
  <Observation>
  <id value="ID1463-lab"/>
    <text>
      <status value="generated"/>
      <div xmlns="http://www.w3.org/1999/xhtml">2003-11-30: Glucose SerPl-mCnc = 89 mg/dL</div>
    </text>
    <code>
      <coding>
        <system value="http://loinc.org"/>
        <code value="2345-7"/>
        <display value="Glucose SerPl-mCnc"/>
      </coding>
    </code>
    <valueQuantity>
      <value value="89.0"/>
      <unit value="mg/dL"/>
      <system value="http://unitsofmeasure.org" />
      <code value=""/>
    </valueQuantity>
    
    <effectiveDateTime value="2003-11-30"/>
    <status value="final"/>
    <reliability value="ok"/>
    <subject>
      <reference value="Patient/ID1768562"/>
    </subject>
    <referenceRange>
      <meaning>
        <coding>
         <system value="http://hl7.org/fhir/referencerange-meaning"/>
         <code value="normal"/>
         <display value="Normal Range"/>
       </coding>
      </meaning>
        <low>
          <value value="70.0"/>
          <unit value="mg/dL"/>
          <code value="mg/dL"/>
          <system value="http://unitsofmeasure.org"/>
        </low>
        <high>
          <value value="110.0"/>
          <unit value="mg/dL"/>
          <code value="mg/dL"/>
          <system value="http://unitsofmeasure.org"/>
        </high>
    </referenceRange>
    
  </Observation>
  
  </resource>
  <request>
    <method value="PUT"/>
    <url value="Observation/ID1463-lab"/>
  </request>
</entry>
<entry>
  <resource>
    
    
  <Observation>
  <id value="ID1464-lab"/>
    <text>
      <status value="generated"/>
      <div xmlns="http://www.w3.org/1999/xhtml">2003-11-30: RBC # Bld Auto = 4.69 10*6/uL</div>
    </text>
    <code>
      <coding>
        <system value="http://loinc.org"/>
        <code value="789-8"/>
        <display value="RBC # Bld Auto"/>
      </coding>
    </code>
    <valueQuantity>
      <value value="4.69"/>
      <unit value="10*6/uL"/>
      <system value="http://unitsofmeasure.org" />
      <code value=""/>
    </valueQuantity>
    
    <effectiveDateTime value="2003-11-30"/>
    <status value="final"/>
    <reliability value="ok"/>
    <subject>
      <reference value="Patient/ID1768562"/>
    </subject>
    <referenceRange>
      <meaning>
        <coding>
         <system value="http://hl7.org/fhir/referencerange-meaning"/>
         <code value="normal"/>
         <display value="Normal Range"/>
       </coding>
      </meaning>
        <low>
          <value value="4.7"/>
          <unit value="10*6/uL"/>
          <code value="10*6/uL"/>
          <system value="http://unitsofmeasure.org"/>
        </low>
        <high>
          <value value="6.0"/>
          <unit value="10*6/uL"/>
          <code value="10*6/uL"/>
          <system value="http://unitsofmeasure.org"/>
        </high>
    </referenceRange>
    
  </Observation>
  
  </resource>
  <request>
    <method value="PUT"/>
    <url value="Observation/ID1464-lab"/>
  </request>
</entry>
<entry>
  <resource>
    
    
  <Observation>
  <id value="ID1465-lab"/>
    <text>
      <status value="generated"/>
      <div xmlns="http://www.w3.org/1999/xhtml">2003-11-30: WBC # Bld = 8.5 10*3/uL</div>
    </text>
    <code>
      <coding>
        <system value="http://loinc.org"/>
        <code value="26464-8"/>
        <display value="WBC # Bld"/>
      </coding>
    </code>
    <valueQuantity>
      <value value="8.5"/>
      <unit value="10*3/uL"/>
      <system value="http://unitsofmeasure.org" />
      <code value=""/>
    </valueQuantity>
    
    <effectiveDateTime value="2003-11-30"/>
    <status value="final"/>
    <reliability value="ok"/>
    <subject>
      <reference value="Patient/ID1768562"/>
    </subject>
    <referenceRange>
      <meaning>
        <coding>
         <system value="http://hl7.org/fhir/referencerange-meaning"/>
         <code value="normal"/>
         <display value="Normal Range"/>
       </coding>
      </meaning>
        <low>
          <value value="4.0"/>
          <unit value="10*3/uL"/>
          <code value="10*3/uL"/>
          <system value="http://unitsofmeasure.org"/>
        </low>
        <high>
          <value value="10.5"/>
          <unit value="10*3/uL"/>
          <code value="10*3/uL"/>
          <system value="http://unitsofmeasure.org"/>
        </high>
    </referenceRange>
    
  </Observation>
  
  </resource>
  <request>
    <method value="PUT"/>
    <url value="Observation/ID1465-lab"/>
  </request>
</entry>
<entry>
  <resource>
    
    
  <Observation>
  <id value="ID1466-lab"/>
    <text>
      <status value="generated"/>
      <div xmlns="http://www.w3.org/1999/xhtml">2003-11-30: Hgb Bld-mCnc = 14.2 g/dL</div>
    </text>
    <code>
      <coding>
        <system value="http://loinc.org"/>
        <code value="718-7"/>
        <display value="Hgb Bld-mCnc"/>
      </coding>
    </code>
    <valueQuantity>
      <value value="14.2"/>
      <unit value="g/dL"/>
      <system value="http://unitsofmeasure.org" />
      <code value=""/>
    </valueQuantity>
    
    <effectiveDateTime value="2003-11-30"/>
    <status value="final"/>
    <reliability value="ok"/>
    <subject>
      <reference value="Patient/ID1768562"/>
    </subject>
    <referenceRange>
      <meaning>
        <coding>
         <system value="http://hl7.org/fhir/referencerange-meaning"/>
         <code value="normal"/>
         <display value="Normal Range"/>
       </coding>
      </meaning>
        <low>
          <value value="13.5"/>
          <unit value="g/dL"/>
          <code value="g/dL"/>
          <system value="http://unitsofmeasure.org"/>
        </low>
        <high>
          <value value="18.0"/>
          <unit value="g/dL"/>
          <code value="g/dL"/>
          <system value="http://unitsofmeasure.org"/>
        </high>
    </referenceRange>
    
  </Observation>
  
  </resource>
  <request>
    <method value="PUT"/>
    <url value="Observation/ID1466-lab"/>
  </request>
</entry>
<entry>
  <resource>
    
    
  <Observation>
  <id value="ID1467-lab"/>
    <text>
      <status value="generated"/>
      <div xmlns="http://www.w3.org/1999/xhtml">2003-11-30: Chloride SerPl-sCnc = 107 mmol/L</div>
    </text>
    <code>
      <coding>
        <system value="http://loinc.org"/>
        <code value="2075-0"/>
        <display value="Chloride SerPl-sCnc"/>
      </coding>
    </code>
    <valueQuantity>
      <value value="107.0"/>
      <unit value="mmol/L"/>
      <system value="http://unitsofmeasure.org" />
      <code value=""/>
    </valueQuantity>
    
    <effectiveDateTime value="2003-11-30"/>
    <status value="final"/>
    <reliability value="ok"/>
    <subject>
      <reference value="Patient/ID1768562"/>
    </subject>
    <referenceRange>
      <meaning>
        <coding>
         <system value="http://hl7.org/fhir/referencerange-meaning"/>
         <code value="normal"/>
         <display value="Normal Range"/>
       </coding>
      </meaning>
        <low>
          <value value="98.0"/>
          <unit value="mmol/L"/>
          <code value="mmol/L"/>
          <system value="http://unitsofmeasure.org"/>
        </low>
        <high>
          <value value="107.0"/>
          <unit value="mmol/L"/>
          <code value="mmol/L"/>
          <system value="http://unitsofmeasure.org"/>
        </high>
    </referenceRange>
    
  </Observation>
  
  </resource>
  <request>
    <method value="PUT"/>
    <url value="Observation/ID1467-lab"/>
  </request>
</entry>
<entry>
  <resource>
    
    
  <Observation>
  <id value="ID1468-lab"/>
    <text>
      <status value="generated"/>
      <div xmlns="http://www.w3.org/1999/xhtml">2003-11-30: Potassium SerPl-sCnc = 4.2 mmol/L</div>
    </text>
    <code>
      <coding>
        <system value="http://loinc.org"/>
        <code value="2823-3"/>
        <display value="Potassium SerPl-sCnc"/>
      </coding>
    </code>
    <valueQuantity>
      <value value="4.2"/>
      <unit value="mmol/L"/>
      <system value="http://unitsofmeasure.org" />
      <code value=""/>
    </valueQuantity>
    
    <effectiveDateTime value="2003-11-30"/>
    <status value="final"/>
    <reliability value="ok"/>
    <subject>
      <reference value="Patient/ID1768562"/>
    </subject>
    <referenceRange>
      <meaning>
        <coding>
         <system value="http://hl7.org/fhir/referencerange-meaning"/>
         <code value="normal"/>
         <display value="Normal Range"/>
       </coding>
      </meaning>
        <low>
          <value value="3.6"/>
          <unit value="mmol/L"/>
          <code value="mmol/L"/>
          <system value="http://unitsofmeasure.org"/>
        </low>
        <high>
          <value value="5.5"/>
          <unit value="mmol/L"/>
          <code value="mmol/L"/>
          <system value="http://unitsofmeasure.org"/>
        </high>
    </referenceRange>
    
  </Observation>
  
  </resource>
  <request>
    <method value="PUT"/>
    <url value="Observation/ID1468-lab"/>
  </request>
</entry>
<entry>
  <resource>
    
    
  <Observation>
  <id value="ID1469-lab"/>
    <text>
      <status value="generated"/>
      <div xmlns="http://www.w3.org/1999/xhtml">2003-11-30: Creat SerPl-mCnc = 0.9 mg/dL</div>
    </text>
    <code>
      <coding>
        <system value="http://loinc.org"/>
        <code value="2160-0"/>
        <display value="Creat SerPl-mCnc"/>
      </coding>
    </code>
    <valueQuantity>
      <value value="0.9"/>
      <unit value="mg/dL"/>
      <system value="http://unitsofmeasure.org" />
      <code value=""/>
    </valueQuantity>
    
    <effectiveDateTime value="2003-11-30"/>
    <status value="final"/>
    <reliability value="ok"/>
    <subject>
      <reference value="Patient/ID1768562"/>
    </subject>
    <referenceRange>
      <meaning>
        <coding>
         <system value="http://hl7.org/fhir/referencerange-meaning"/>
         <code value="normal"/>
         <display value="Normal Range"/>
       </coding>
      </meaning>
        <low>
          <value value="0.8"/>
          <unit value="mg/dL"/>
          <code value="mg/dL"/>
          <system value="http://unitsofmeasure.org"/>
        </low>
        <high>
          <value value="1.5"/>
          <unit value="mg/dL"/>
          <code value="mg/dL"/>
          <system value="http://unitsofmeasure.org"/>
        </high>
    </referenceRange>
    
  </Observation>
  
  </resource>
  <request>
    <method value="PUT"/>
    <url value="Observation/ID1469-lab"/>
  </request>
</entry>
<entry>
  <resource>
    
    
  <Observation>
  <id value="ID1470-lab"/>
    <text>
      <status value="generated"/>
      <div xmlns="http://www.w3.org/1999/xhtml">2003-11-30: Sodium SerPl-sCnc = 140 mmol/L</div>
    </text>
    <code>
      <coding>
        <system value="http://loinc.org"/>
        <code value="2951-2"/>
        <display value="Sodium SerPl-sCnc"/>
      </coding>
    </code>
    <valueQuantity>
      <value value="140.0"/>
      <unit value="mmol/L"/>
      <system value="http://unitsofmeasure.org" />
      <code value=""/>
    </valueQuantity>
    
    <effectiveDateTime value="2003-11-30"/>
    <status value="final"/>
    <reliability value="ok"/>
    <subject>
      <reference value="Patient/ID1768562"/>
    </subject>
    <referenceRange>
      <meaning>
        <coding>
         <system value="http://hl7.org/fhir/referencerange-meaning"/>
         <code value="normal"/>
         <display value="Normal Range"/>
       </coding>
      </meaning>
        <low>
          <value value="137.0"/>
          <unit value="mmol/L"/>
          <code value="mmol/L"/>
          <system value="http://unitsofmeasure.org"/>
        </low>
        <high>
          <value value="145.0"/>
          <unit value="mmol/L"/>
          <code value="mmol/L"/>
          <system value="http://unitsofmeasure.org"/>
        </high>
    </referenceRange>
    
  </Observation>
  
  </resource>
  <request>
    <method value="PUT"/>
    <url value="Observation/ID1470-lab"/>
  </request>
</entry>
<entry>
  <resource>
    
    
  <Observation>
  <id value="ID1471-lab"/>
    <text>
      <status value="generated"/>
      <div xmlns="http://www.w3.org/1999/xhtml">2003-11-30: MCHC RBC Auto-mCnc = 33.3 g/dL</div>
    </text>
    <code>
      <coding>
        <system value="http://loinc.org"/>
        <code value="786-4"/>
        <display value="MCHC RBC Auto-mCnc"/>
      </coding>
    </code>
    <valueQuantity>
      <value value="33.3"/>
      <unit value="g/dL"/>
      <system value="http://unitsofmeasure.org" />
      <code value=""/>
    </valueQuantity>
    
    <effectiveDateTime value="2003-11-30"/>
    <status value="final"/>
    <reliability value="ok"/>
    <subject>
      <reference value="Patient/ID1768562"/>
    </subject>
    <referenceRange>
      <meaning>
        <coding>
         <system value="http://hl7.org/fhir/referencerange-meaning"/>
         <code value="normal"/>
         <display value="Normal Range"/>
       </coding>
      </meaning>
        <low>
          <value value="32.0"/>
          <unit value="g/dL"/>
          <code value="g/dL"/>
          <system value="http://unitsofmeasure.org"/>
        </low>
        <high>
          <value value="36.0"/>
          <unit value="g/dL"/>
          <code value="g/dL"/>
          <system value="http://unitsofmeasure.org"/>
        </high>
    </referenceRange>
    
  </Observation>
  
  </resource>
  <request>
    <method value="PUT"/>
    <url value="Observation/ID1471-lab"/>
  </request>
</entry>
<entry>
  <resource>
    
    
  <Observation>
  <id value="ID1472-lab"/>
    <text>
      <status value="generated"/>
      <div xmlns="http://www.w3.org/1999/xhtml">2003-11-30: MCH RBC Qn Auto = 30.2 pg</div>
    </text>
    <code>
      <coding>
        <system value="http://loinc.org"/>
        <code value="785-6"/>
        <display value="MCH RBC Qn Auto"/>
      </coding>
    </code>
    <valueQuantity>
      <value value="30.2"/>
      <unit value="pg"/>
      <system value="http://unitsofmeasure.org" />
      <code value=""/>
    </valueQuantity>
    
    <effectiveDateTime value="2003-11-30"/>
    <status value="final"/>
    <reliability value="ok"/>
    <subject>
      <reference value="Patient/ID1768562"/>
    </subject>
    <referenceRange>
      <meaning>
        <coding>
         <system value="http://hl7.org/fhir/referencerange-meaning"/>
         <code value="normal"/>
         <display value="Normal Range"/>
       </coding>
      </meaning>
        <low>
          <value value="27.0"/>
          <unit value="pg"/>
          <code value="pg"/>
          <system value="http://unitsofmeasure.org"/>
        </low>
        <high>
          <value value="31.0"/>
          <unit value="pg"/>
          <code value="pg"/>
          <system value="http://unitsofmeasure.org"/>
        </high>
    </referenceRange>
    
  </Observation>
  
  </resource>
  <request>
    <method value="PUT"/>
    <url value="Observation/ID1472-lab"/>
  </request>
</entry>
<entry>
  <resource>
    
    
  <Observation>
  <id value="ID1473-lab"/>
    <text>
      <status value="generated"/>
      <div xmlns="http://www.w3.org/1999/xhtml">2003-11-30: MCV RBC = 90.7 fL</div>
    </text>
    <code>
      <coding>
        <system value="http://loinc.org"/>
        <code value="30428-7"/>
        <display value="MCV RBC"/>
      </coding>
    </code>
    <valueQuantity>
      <value value="90.7"/>
      <unit value="fL"/>
      <system value="http://unitsofmeasure.org" />
      <code value=""/>
    </valueQuantity>
    
    <effectiveDateTime value="2003-11-30"/>
    <status value="final"/>
    <reliability value="ok"/>
    <subject>
      <reference value="Patient/ID1768562"/>
    </subject>
    <referenceRange>
      <meaning>
        <coding>
         <system value="http://hl7.org/fhir/referencerange-meaning"/>
         <code value="normal"/>
         <display value="Normal Range"/>
       </coding>
      </meaning>
        <low>
          <value value="78.0"/>
          <unit value="fL"/>
          <code value="fL"/>
          <system value="http://unitsofmeasure.org"/>
        </low>
        <high>
          <value value="100.0"/>
          <unit value="fL"/>
          <code value="fL"/>
          <system value="http://unitsofmeasure.org"/>
        </high>
    </referenceRange>
    
  </Observation>
  
  </resource>
  <request>
    <method value="PUT"/>
    <url value="Observation/ID1473-lab"/>
  </request>
</entry>
<entry>
  <resource>
    
    
  <Observation>
  <id value="ID1474-lab"/>
    <text>
      <status value="generated"/>
      <div xmlns="http://www.w3.org/1999/xhtml">2003-11-30: TSH SerPl DL&lt;=0.005 mU/L-aCnc = 3 mcU/mL</div>
    </text>
    <code>
      <coding>
        <system value="http://loinc.org"/>
        <code value="11580-8"/>
        <display value="TSH SerPl DL&lt;=0.005 mU/L-aCnc"/>
      </coding>
    </code>
    <valueQuantity>
      <value value="3.0"/>
      <unit value="mcU/mL"/>
      <system value="http://unitsofmeasure.org" />
      <code value=""/>
    </valueQuantity>
    
    <effectiveDateTime value="2003-11-30"/>
    <status value="final"/>
    <reliability value="ok"/>
    <subject>
      <reference value="Patient/ID1768562"/>
    </subject>
    <referenceRange>
      <meaning>
        <coding>
         <system value="http://hl7.org/fhir/referencerange-meaning"/>
         <code value="normal"/>
         <display value="Normal Range"/>
       </coding>
      </meaning>
        <low>
          <value value="0.4"/>
          <unit value="mcU/mL"/>
          <code value="mcU/mL"/>
          <system value="http://unitsofmeasure.org"/>
        </low>
        <high>
          <value value="5.5"/>
          <unit value="mcU/mL"/>
          <code value="mcU/mL"/>
          <system value="http://unitsofmeasure.org"/>
        </high>
    </referenceRange>
    
  </Observation>
  
  </resource>
  <request>
    <method value="PUT"/>
    <url value="Observation/ID1474-lab"/>
  </request>
</entry>
<entry>
  <resource>
    
    
  <Observation>
  <id value="ID1475-lab"/>
    <text>
      <status value="generated"/>
      <div xmlns="http://www.w3.org/1999/xhtml">2003-12-01: Cholest SerPl-mCnc = 141 mg/dL</div>
    </text>
    <code>
      <coding>
        <system value="http://loinc.org"/>
        <code value="2093-3"/>
        <display value="Cholest SerPl-mCnc"/>
      </coding>
    </code>
    <valueQuantity>
      <value value="141.0"/>
      <unit value="mg/dL"/>
      <system value="http://unitsofmeasure.org" />
      <code value=""/>
    </valueQuantity>
    
    <effectiveDateTime value="2003-12-01"/>
    <status value="final"/>
    <reliability value="ok"/>
    <subject>
      <reference value="Patient/ID1768562"/>
    </subject>
    <referenceRange>
      <meaning>
        <coding>
         <system value="http://hl7.org/fhir/referencerange-meaning"/>
         <code value="normal"/>
         <display value="Normal Range"/>
       </coding>
      </meaning>
        <low>
          <value value="100.0"/>
          <unit value="mg/dL"/>
          <code value="mg/dL"/>
          <system value="http://unitsofmeasure.org"/>
        </low>
        <high>
          <value value="200.0"/>
          <unit value="mg/dL"/>
          <code value="mg/dL"/>
          <system value="http://unitsofmeasure.org"/>
        </high>
    </referenceRange>
    
  </Observation>
  
  </resource>
  <request>
    <method value="PUT"/>
    <url value="Observation/ID1475-lab"/>
  </request>
</entry>
<entry>
  <resource>
    
    
  <Observation>
  <id value="ID1476-lab"/>
    <text>
      <status value="generated"/>
      <div xmlns="http://www.w3.org/1999/xhtml">2003-12-01: Platelet # Bld = 207 10*3/uL</div>
    </text>
    <code>
      <coding>
        <system value="http://loinc.org"/>
        <code value="26515-7"/>
        <display value="Platelet # Bld"/>
      </coding>
    </code>
    <valueQuantity>
      <value value="207.0"/>
      <unit value="10*3/uL"/>
      <system value="http://unitsofmeasure.org" />
      <code value=""/>
    </valueQuantity>
    
    <effectiveDateTime value="2003-12-01"/>
    <status value="final"/>
    <reliability value="ok"/>
    <subject>
      <reference value="Patient/ID1768562"/>
    </subject>
    <referenceRange>
      <meaning>
        <coding>
         <system value="http://hl7.org/fhir/referencerange-meaning"/>
         <code value="normal"/>
         <display value="Normal Range"/>
       </coding>
      </meaning>
        <low>
          <value value="150.0"/>
          <unit value="10*3/uL"/>
          <code value="10*3/uL"/>
          <system value="http://unitsofmeasure.org"/>
        </low>
        <high>
          <value value="450.0"/>
          <unit value="10*3/uL"/>
          <code value="10*3/uL"/>
          <system value="http://unitsofmeasure.org"/>
        </high>
    </referenceRange>
    
  </Observation>
  
  </resource>
  <request>
    <method value="PUT"/>
    <url value="Observation/ID1476-lab"/>
  </request>
</entry>
<entry>
  <resource>
    
    
  <Observation>
  <id value="ID1477-lab"/>
    <text>
      <status value="generated"/>
      <div xmlns="http://www.w3.org/1999/xhtml">2003-12-01: Hgb Bld-mCnc = 13 g/dL</div>
    </text>
    <code>
      <coding>
        <system value="http://loinc.org"/>
        <code value="718-7"/>
        <display value="Hgb Bld-mCnc"/>
      </coding>
    </code>
    <valueQuantity>
      <value value="13.0"/>
      <unit value="g/dL"/>
      <system value="http://unitsofmeasure.org" />
      <code value=""/>
    </valueQuantity>
    
    <effectiveDateTime value="2003-12-01"/>
    <status value="final"/>
    <reliability value="ok"/>
    <subject>
      <reference value="Patient/ID1768562"/>
    </subject>
    <referenceRange>
      <meaning>
        <coding>
         <system value="http://hl7.org/fhir/referencerange-meaning"/>
         <code value="normal"/>
         <display value="Normal Range"/>
       </coding>
      </meaning>
        <low>
          <value value="13.5"/>
          <unit value="g/dL"/>
          <code value="g/dL"/>
          <system value="http://unitsofmeasure.org"/>
        </low>
        <high>
          <value value="18.0"/>
          <unit value="g/dL"/>
          <code value="g/dL"/>
          <system value="http://unitsofmeasure.org"/>
        </high>
    </referenceRange>
    
  </Observation>
  
  </resource>
  <request>
    <method value="PUT"/>
    <url value="Observation/ID1477-lab"/>
  </request>
</entry>
<entry>
  <resource>
    
    
  <Observation>
  <id value="ID1478-lab"/>
    <text>
      <status value="generated"/>
      <div xmlns="http://www.w3.org/1999/xhtml">2003-12-01: Calcium SerPl-mCnc = 8.7 mg/dL</div>
    </text>
    <code>
      <coding>
        <system value="http://loinc.org"/>
        <code value="17861-6"/>
        <display value="Calcium SerPl-mCnc"/>
      </coding>
    </code>
    <valueQuantity>
      <value value="8.7"/>
      <unit value="mg/dL"/>
      <system value="http://unitsofmeasure.org" />
      <code value=""/>
    </valueQuantity>
    
    <effectiveDateTime value="2003-12-01"/>
    <status value="final"/>
    <reliability value="ok"/>
    <subject>
      <reference value="Patient/ID1768562"/>
    </subject>
    <referenceRange>
      <meaning>
        <coding>
         <system value="http://hl7.org/fhir/referencerange-meaning"/>
         <code value="normal"/>
         <display value="Normal Range"/>
       </coding>
      </meaning>
        <low>
          <value value="8.4"/>
          <unit value="mg/dL"/>
          <code value="mg/dL"/>
          <system value="http://unitsofmeasure.org"/>
        </low>
        <high>
          <value value="10.2"/>
          <unit value="mg/dL"/>
          <code value="mg/dL"/>
          <system value="http://unitsofmeasure.org"/>
        </high>
    </referenceRange>
    
  </Observation>
  
  </resource>
  <request>
    <method value="PUT"/>
    <url value="Observation/ID1478-lab"/>
  </request>
</entry>
<entry>
  <resource>
    
    
  <Observation>
  <id value="ID1479-lab"/>
    <text>
      <status value="generated"/>
      <div xmlns="http://www.w3.org/1999/xhtml">2003-12-01: Chloride SerPl-sCnc = 107 mmol/L</div>
    </text>
    <code>
      <coding>
        <system value="http://loinc.org"/>
        <code value="2075-0"/>
        <display value="Chloride SerPl-sCnc"/>
      </coding>
    </code>
    <valueQuantity>
      <value value="107.0"/>
      <unit value="mmol/L"/>
      <system value="http://unitsofmeasure.org" />
      <code value=""/>
    </valueQuantity>
    
    <effectiveDateTime value="2003-12-01"/>
    <status value="final"/>
    <reliability value="ok"/>
    <subject>
      <reference value="Patient/ID1768562"/>
    </subject>
    <referenceRange>
      <meaning>
        <coding>
         <system value="http://hl7.org/fhir/referencerange-meaning"/>
         <code value="normal"/>
         <display value="Normal Range"/>
       </coding>
      </meaning>
        <low>
          <value value="98.0"/>
          <unit value="mmol/L"/>
          <code value="mmol/L"/>
          <system value="http://unitsofmeasure.org"/>
        </low>
        <high>
          <value value="107.0"/>
          <unit value="mmol/L"/>
          <code value="mmol/L"/>
          <system value="http://unitsofmeasure.org"/>
        </high>
    </referenceRange>
    
  </Observation>
  
  </resource>
  <request>
    <method value="PUT"/>
    <url value="Observation/ID1479-lab"/>
  </request>
</entry>
<entry>
  <resource>
    
    
  <Observation>
  <id value="ID1480-lab"/>
    <text>
      <status value="generated"/>
      <div xmlns="http://www.w3.org/1999/xhtml">2003-12-01: Potassium SerPl-sCnc = 4 mmol/L</div>
    </text>
    <code>
      <coding>
        <system value="http://loinc.org"/>
        <code value="2823-3"/>
        <display value="Potassium SerPl-sCnc"/>
      </coding>
    </code>
    <valueQuantity>
      <value value="4.0"/>
      <unit value="mmol/L"/>
      <system value="http://unitsofmeasure.org" />
      <code value=""/>
    </valueQuantity>
    
    <effectiveDateTime value="2003-12-01"/>
    <status value="final"/>
    <reliability value="ok"/>
    <subject>
      <reference value="Patient/ID1768562"/>
    </subject>
    <referenceRange>
      <meaning>
        <coding>
         <system value="http://hl7.org/fhir/referencerange-meaning"/>
         <code value="normal"/>
         <display value="Normal Range"/>
       </coding>
      </meaning>
        <low>
          <value value="3.6"/>
          <unit value="mmol/L"/>
          <code value="mmol/L"/>
          <system value="http://unitsofmeasure.org"/>
        </low>
        <high>
          <value value="5.5"/>
          <unit value="mmol/L"/>
          <code value="mmol/L"/>
          <system value="http://unitsofmeasure.org"/>
        </high>
    </referenceRange>
    
  </Observation>
  
  </resource>
  <request>
    <method value="PUT"/>
    <url value="Observation/ID1480-lab"/>
  </request>
</entry>
<entry>
  <resource>
    
    
  <Observation>
  <id value="ID1481-lab"/>
    <text>
      <status value="generated"/>
      <div xmlns="http://www.w3.org/1999/xhtml">2003-12-01: PMV Bld = 7.1 fL</div>
    </text>
    <code>
      <coding>
        <system value="http://loinc.org"/>
        <code value="28542-9"/>
        <display value="PMV Bld"/>
      </coding>
    </code>
    <valueQuantity>
      <value value="7.1"/>
      <unit value="fL"/>
      <system value="http://unitsofmeasure.org" />
      <code value=""/>
    </valueQuantity>
    
    <effectiveDateTime value="2003-12-01"/>
    <status value="final"/>
    <reliability value="ok"/>
    <subject>
      <reference value="Patient/ID1768562"/>
    </subject>
    <referenceRange>
      <meaning>
        <coding>
         <system value="http://hl7.org/fhir/referencerange-meaning"/>
         <code value="normal"/>
         <display value="Normal Range"/>
       </coding>
      </meaning>
        <low>
          <value value="6.0"/>
          <unit value="fL"/>
          <code value="fL"/>
          <system value="http://unitsofmeasure.org"/>
        </low>
        <high>
          <value value="9.5"/>
          <unit value="fL"/>
          <code value="fL"/>
          <system value="http://unitsofmeasure.org"/>
        </high>
    </referenceRange>
    
  </Observation>
  
  </resource>
  <request>
    <method value="PUT"/>
    <url value="Observation/ID1481-lab"/>
  </request>
</entry>
<entry>
  <resource>
    
    
  <Observation>
  <id value="ID1482-lab"/>
    <text>
      <status value="generated"/>
      <div xmlns="http://www.w3.org/1999/xhtml">2003-12-01: Creat SerPl-mCnc = 0.9 mg/dL</div>
    </text>
    <code>
      <coding>
        <system value="http://loinc.org"/>
        <code value="2160-0"/>
        <display value="Creat SerPl-mCnc"/>
      </coding>
    </code>
    <valueQuantity>
      <value value="0.9"/>
      <unit value="mg/dL"/>
      <system value="http://unitsofmeasure.org" />
      <code value=""/>
    </valueQuantity>
    
    <effectiveDateTime value="2003-12-01"/>
    <status value="final"/>
    <reliability value="ok"/>
    <subject>
      <reference value="Patient/ID1768562"/>
    </subject>
    <referenceRange>
      <meaning>
        <coding>
         <system value="http://hl7.org/fhir/referencerange-meaning"/>
         <code value="normal"/>
         <display value="Normal Range"/>
       </coding>
      </meaning>
        <low>
          <value value="0.8"/>
          <unit value="mg/dL"/>
          <code value="mg/dL"/>
          <system value="http://unitsofmeasure.org"/>
        </low>
        <high>
          <value value="1.5"/>
          <unit value="mg/dL"/>
          <code value="mg/dL"/>
          <system value="http://unitsofmeasure.org"/>
        </high>
    </referenceRange>
    
  </Observation>
  
  </resource>
  <request>
    <method value="PUT"/>
    <url value="Observation/ID1482-lab"/>
  </request>
</entry>
<entry>
  <resource>
    
    
  <Observation>
  <id value="ID1483-lab"/>
    <text>
      <status value="generated"/>
      <div xmlns="http://www.w3.org/1999/xhtml">2003-12-01: BUN SerPl-mCnc = 15 mg/dL</div>
    </text>
    <code>
      <coding>
        <system value="http://loinc.org"/>
        <code value="3094-0"/>
        <display value="BUN SerPl-mCnc"/>
      </coding>
    </code>
    <valueQuantity>
      <value value="15.0"/>
      <unit value="mg/dL"/>
      <system value="http://unitsofmeasure.org" />
      <code value=""/>
    </valueQuantity>
    
    <effectiveDateTime value="2003-12-01"/>
    <status value="final"/>
    <reliability value="ok"/>
    <subject>
      <reference value="Patient/ID1768562"/>
    </subject>
    <referenceRange>
      <meaning>
        <coding>
         <system value="http://hl7.org/fhir/referencerange-meaning"/>
         <code value="normal"/>
         <display value="Normal Range"/>
       </coding>
      </meaning>
        <low>
          <value value="9.0"/>
          <unit value="mg/dL"/>
          <code value="mg/dL"/>
          <system value="http://unitsofmeasure.org"/>
        </low>
        <high>
          <value value="20.0"/>
          <unit value="mg/dL"/>
          <code value="mg/dL"/>
          <system value="http://unitsofmeasure.org"/>
        </high>
    </referenceRange>
    
  </Observation>
  
  </resource>
  <request>
    <method value="PUT"/>
    <url value="Observation/ID1483-lab"/>
  </request>
</entry>
<entry>
  <resource>
    
    
  <Observation>
  <id value="ID1484-lab"/>
    <text>
      <status value="generated"/>
      <div xmlns="http://www.w3.org/1999/xhtml">2003-12-01: Sodium SerPl-sCnc = 140 mmol/L</div>
    </text>
    <code>
      <coding>
        <system value="http://loinc.org"/>
        <code value="2951-2"/>
        <display value="Sodium SerPl-sCnc"/>
      </coding>
    </code>
    <valueQuantity>
      <value value="140.0"/>
      <unit value="mmol/L"/>
      <system value="http://unitsofmeasure.org" />
      <code value=""/>
    </valueQuantity>
    
    <effectiveDateTime value="2003-12-01"/>
    <status value="final"/>
    <reliability value="ok"/>
    <subject>
      <reference value="Patient/ID1768562"/>
    </subject>
    <referenceRange>
      <meaning>
        <coding>
         <system value="http://hl7.org/fhir/referencerange-meaning"/>
         <code value="normal"/>
         <display value="Normal Range"/>
       </coding>
      </meaning>
        <low>
          <value value="137.0"/>
          <unit value="mmol/L"/>
          <code value="mmol/L"/>
          <system value="http://unitsofmeasure.org"/>
        </low>
        <high>
          <value value="145.0"/>
          <unit value="mmol/L"/>
          <code value="mmol/L"/>
          <system value="http://unitsofmeasure.org"/>
        </high>
    </referenceRange>
    
  </Observation>
  
  </resource>
  <request>
    <method value="PUT"/>
    <url value="Observation/ID1484-lab"/>
  </request>
</entry>
<entry>
  <resource>
    
    
  <Observation>
  <id value="ID1485-lab"/>
    <text>
      <status value="generated"/>
      <div xmlns="http://www.w3.org/1999/xhtml">2003-12-01: LDLc SerPl Calc-mCnc = 90 mg/dL</div>
    </text>
    <code>
      <coding>
        <system value="http://loinc.org"/>
        <code value="13457-7"/>
        <display value="LDLc SerPl Calc-mCnc"/>
      </coding>
    </code>
    <valueQuantity>
      <value value="90.0"/>
      <unit value="mg/dL"/>
      <system value="http://unitsofmeasure.org" />
      <code value=""/>
    </valueQuantity>
    
    <effectiveDateTime value="2003-12-01"/>
    <status value="final"/>
    <reliability value="ok"/>
    <subject>
      <reference value="Patient/ID1768562"/>
    </subject>
    <referenceRange>
      <meaning>
        <coding>
         <system value="http://hl7.org/fhir/referencerange-meaning"/>
         <code value="normal"/>
         <display value="Normal Range"/>
       </coding>
      </meaning>
        <low>
          <value value="0.0"/>
          <unit value="mg/dL"/>
          <code value="mg/dL"/>
          <system value="http://unitsofmeasure.org"/>
        </low>
        <high>
          <value value="0.0"/>
          <unit value="mg/dL"/>
          <code value="mg/dL"/>
          <system value="http://unitsofmeasure.org"/>
        </high>
    </referenceRange>
    
  </Observation>
  
  </resource>
  <request>
    <method value="PUT"/>
    <url value="Observation/ID1485-lab"/>
  </request>
</entry>
<entry>
  <resource>
    
    
  <Observation>
  <id value="ID1486-lab"/>
    <text>
      <status value="generated"/>
      <div xmlns="http://www.w3.org/1999/xhtml">2003-12-01: Glucose SerPl-mCnc = 112 mg/dL</div>
    </text>
    <code>
      <coding>
        <system value="http://loinc.org"/>
        <code value="2345-7"/>
        <display value="Glucose SerPl-mCnc"/>
      </coding>
    </code>
    <valueQuantity>
      <value value="112.0"/>
      <unit value="mg/dL"/>
      <system value="http://unitsofmeasure.org" />
      <code value=""/>
    </valueQuantity>
    
    <effectiveDateTime value="2003-12-01"/>
    <status value="final"/>
    <reliability value="ok"/>
    <subject>
      <reference value="Patient/ID1768562"/>
    </subject>
    <referenceRange>
      <meaning>
        <coding>
         <system value="http://hl7.org/fhir/referencerange-meaning"/>
         <code value="normal"/>
         <display value="Normal Range"/>
       </coding>
      </meaning>
        <low>
          <value value="70.0"/>
          <unit value="mg/dL"/>
          <code value="mg/dL"/>
          <system value="http://unitsofmeasure.org"/>
        </low>
        <high>
          <value value="110.0"/>
          <unit value="mg/dL"/>
          <code value="mg/dL"/>
          <system value="http://unitsofmeasure.org"/>
        </high>
    </referenceRange>
    
  </Observation>
  
  </resource>
  <request>
    <method value="PUT"/>
    <url value="Observation/ID1486-lab"/>
  </request>
</entry>
<entry>
  <resource>
    
    
  <Observation>
  <id value="ID1487-lab"/>
    <text>
      <status value="generated"/>
      <div xmlns="http://www.w3.org/1999/xhtml">2003-12-01: MCHC RBC Auto-mCnc = 33 g/dL</div>
    </text>
    <code>
      <coding>
        <system value="http://loinc.org"/>
        <code value="786-4"/>
        <display value="MCHC RBC Auto-mCnc"/>
      </coding>
    </code>
    <valueQuantity>
      <value value="33.0"/>
      <unit value="g/dL"/>
      <system value="http://unitsofmeasure.org" />
      <code value=""/>
    </valueQuantity>
    
    <effectiveDateTime value="2003-12-01"/>
    <status value="final"/>
    <reliability value="ok"/>
    <subject>
      <reference value="Patient/ID1768562"/>
    </subject>
    <referenceRange>
      <meaning>
        <coding>
         <system value="http://hl7.org/fhir/referencerange-meaning"/>
         <code value="normal"/>
         <display value="Normal Range"/>
       </coding>
      </meaning>
        <low>
          <value value="32.0"/>
          <unit value="g/dL"/>
          <code value="g/dL"/>
          <system value="http://unitsofmeasure.org"/>
        </low>
        <high>
          <value value="36.0"/>
          <unit value="g/dL"/>
          <code value="g/dL"/>
          <system value="http://unitsofmeasure.org"/>
        </high>
    </referenceRange>
    
  </Observation>
  
  </resource>
  <request>
    <method value="PUT"/>
    <url value="Observation/ID1487-lab"/>
  </request>
</entry>
<entry>
  <resource>
    
    
  <Observation>
  <id value="ID1488-lab"/>
    <text>
      <status value="generated"/>
      <div xmlns="http://www.w3.org/1999/xhtml">2003-12-01: HDLc SerPl-mCnc = 34 mg/dL</div>
    </text>
    <code>
      <coding>
        <system value="http://loinc.org"/>
        <code value="2085-9"/>
        <display value="HDLc SerPl-mCnc"/>
      </coding>
    </code>
    <valueQuantity>
      <value value="34.0"/>
      <unit value="mg/dL"/>
      <system value="http://unitsofmeasure.org" />
      <code value=""/>
    </valueQuantity>
    
    <effectiveDateTime value="2003-12-01"/>
    <status value="final"/>
    <reliability value="ok"/>
    <subject>
      <reference value="Patient/ID1768562"/>
    </subject>
    <referenceRange>
      <meaning>
        <coding>
         <system value="http://hl7.org/fhir/referencerange-meaning"/>
         <code value="normal"/>
         <display value="Normal Range"/>
       </coding>
      </meaning>
        <low>
          <value value="35.0"/>
          <unit value="mg/dL"/>
          <code value="mg/dL"/>
          <system value="http://unitsofmeasure.org"/>
        </low>
        <high>
          <value value="55.0"/>
          <unit value="mg/dL"/>
          <code value="mg/dL"/>
          <system value="http://unitsofmeasure.org"/>
        </high>
    </referenceRange>
    
  </Observation>
  
  </resource>
  <request>
    <method value="PUT"/>
    <url value="Observation/ID1488-lab"/>
  </request>
</entry>
<entry>
  <resource>
    
    
  <Observation>
  <id value="ID1489-lab"/>
    <text>
      <status value="generated"/>
      <div xmlns="http://www.w3.org/1999/xhtml">2003-12-01: MCH RBC Qn Auto = 31 pg</div>
    </text>
    <code>
      <coding>
        <system value="http://loinc.org"/>
        <code value="785-6"/>
        <display value="MCH RBC Qn Auto"/>
      </coding>
    </code>
    <valueQuantity>
      <value value="31.0"/>
      <unit value="pg"/>
      <system value="http://unitsofmeasure.org" />
      <code value=""/>
    </valueQuantity>
    
    <effectiveDateTime value="2003-12-01"/>
    <status value="final"/>
    <reliability value="ok"/>
    <subject>
      <reference value="Patient/ID1768562"/>
    </subject>
    <referenceRange>
      <meaning>
        <coding>
         <system value="http://hl7.org/fhir/referencerange-meaning"/>
         <code value="normal"/>
         <display value="Normal Range"/>
       </coding>
      </meaning>
        <low>
          <value value="27.0"/>
          <unit value="pg"/>
          <code value="pg"/>
          <system value="http://unitsofmeasure.org"/>
        </low>
        <high>
          <value value="31.0"/>
          <unit value="pg"/>
          <code value="pg"/>
          <system value="http://unitsofmeasure.org"/>
        </high>
    </referenceRange>
    
  </Observation>
  
  </resource>
  <request>
    <method value="PUT"/>
    <url value="Observation/ID1489-lab"/>
  </request>
</entry>
<entry>
  <resource>
    
    
  <Observation>
  <id value="ID1490-lab"/>
    <text>
      <status value="generated"/>
      <div xmlns="http://www.w3.org/1999/xhtml">2003-12-01: RBC # Bld Auto = 4.19 10*6/uL</div>
    </text>
    <code>
      <coding>
        <system value="http://loinc.org"/>
        <code value="789-8"/>
        <display value="RBC # Bld Auto"/>
      </coding>
    </code>
    <valueQuantity>
      <value value="4.19"/>
      <unit value="10*6/uL"/>
      <system value="http://unitsofmeasure.org" />
      <code value=""/>
    </valueQuantity>
    
    <effectiveDateTime value="2003-12-01"/>
    <status value="final"/>
    <reliability value="ok"/>
    <subject>
      <reference value="Patient/ID1768562"/>
    </subject>
    <referenceRange>
      <meaning>
        <coding>
         <system value="http://hl7.org/fhir/referencerange-meaning"/>
         <code value="normal"/>
         <display value="Normal Range"/>
       </coding>
      </meaning>
        <low>
          <value value="4.7"/>
          <unit value="10*6/uL"/>
          <code value="10*6/uL"/>
          <system value="http://unitsofmeasure.org"/>
        </low>
        <high>
          <value value="6.0"/>
          <unit value="10*6/uL"/>
          <code value="10*6/uL"/>
          <system value="http://unitsofmeasure.org"/>
        </high>
    </referenceRange>
    
  </Observation>
  
  </resource>
  <request>
    <method value="PUT"/>
    <url value="Observation/ID1490-lab"/>
  </request>
</entry>
<entry>
  <resource>
    
    
  <Observation>
  <id value="ID1491-lab"/>
    <text>
      <status value="generated"/>
      <div xmlns="http://www.w3.org/1999/xhtml">2003-12-01: MCV RBC = 93.7 fL</div>
    </text>
    <code>
      <coding>
        <system value="http://loinc.org"/>
        <code value="30428-7"/>
        <display value="MCV RBC"/>
      </coding>
    </code>
    <valueQuantity>
      <value value="93.7"/>
      <unit value="fL"/>
      <system value="http://unitsofmeasure.org" />
      <code value=""/>
    </valueQuantity>
    
    <effectiveDateTime value="2003-12-01"/>
    <status value="final"/>
    <reliability value="ok"/>
    <subject>
      <reference value="Patient/ID1768562"/>
    </subject>
    <referenceRange>
      <meaning>
        <coding>
         <system value="http://hl7.org/fhir/referencerange-meaning"/>
         <code value="normal"/>
         <display value="Normal Range"/>
       </coding>
      </meaning>
        <low>
          <value value="78.0"/>
          <unit value="fL"/>
          <code value="fL"/>
          <system value="http://unitsofmeasure.org"/>
        </low>
        <high>
          <value value="100.0"/>
          <unit value="fL"/>
          <code value="fL"/>
          <system value="http://unitsofmeasure.org"/>
        </high>
    </referenceRange>
    
  </Observation>
  
  </resource>
  <request>
    <method value="PUT"/>
    <url value="Observation/ID1491-lab"/>
  </request>
</entry>
<entry>
  <resource>
    
    
  <Observation>
  <id value="ID1492-lab"/>
    <text>
      <status value="generated"/>
      <div xmlns="http://www.w3.org/1999/xhtml">2003-12-01: RDW RBC-Rto = 13.2 %</div>
    </text>
    <code>
      <coding>
        <system value="http://loinc.org"/>
        <code value="30385-9"/>
        <display value="RDW RBC-Rto"/>
      </coding>
    </code>
    <valueQuantity>
      <value value="13.2"/>
      <unit value="%"/>
      <system value="http://unitsofmeasure.org" />
      <code value=""/>
    </valueQuantity>
    
    <effectiveDateTime value="2003-12-01"/>
    <status value="final"/>
    <reliability value="ok"/>
    <subject>
      <reference value="Patient/ID1768562"/>
    </subject>
    <referenceRange>
      <meaning>
        <coding>
         <system value="http://hl7.org/fhir/referencerange-meaning"/>
         <code value="normal"/>
         <display value="Normal Range"/>
       </coding>
      </meaning>
        <low>
          <value value="11.5"/>
          <unit value="%"/>
          <code value="%"/>
          <system value="http://unitsofmeasure.org"/>
        </low>
        <high>
          <value value="14.0"/>
          <unit value="%"/>
          <code value="%"/>
          <system value="http://unitsofmeasure.org"/>
        </high>
    </referenceRange>
    
  </Observation>
  
  </resource>
  <request>
    <method value="PUT"/>
    <url value="Observation/ID1492-lab"/>
  </request>
</entry>
<entry>
  <resource>
    
    
  <Observation>
  <id value="ID1493-lab"/>
    <text>
      <status value="generated"/>
      <div xmlns="http://www.w3.org/1999/xhtml">2003-12-01: WBC # Bld = 9.9 10*3/uL</div>
    </text>
    <code>
      <coding>
        <system value="http://loinc.org"/>
        <code value="26464-8"/>
        <display value="WBC # Bld"/>
      </coding>
    </code>
    <valueQuantity>
      <value value="9.9"/>
      <unit value="10*3/uL"/>
      <system value="http://unitsofmeasure.org" />
      <code value=""/>
    </valueQuantity>
    
    <effectiveDateTime value="2003-12-01"/>
    <status value="final"/>
    <reliability value="ok"/>
    <subject>
      <reference value="Patient/ID1768562"/>
    </subject>
    <referenceRange>
      <meaning>
        <coding>
         <system value="http://hl7.org/fhir/referencerange-meaning"/>
         <code value="normal"/>
         <display value="Normal Range"/>
       </coding>
      </meaning>
        <low>
          <value value="4.0"/>
          <unit value="10*3/uL"/>
          <code value="10*3/uL"/>
          <system value="http://unitsofmeasure.org"/>
        </low>
        <high>
          <value value="10.5"/>
          <unit value="10*3/uL"/>
          <code value="10*3/uL"/>
          <system value="http://unitsofmeasure.org"/>
        </high>
    </referenceRange>
    
  </Observation>
  
  </resource>
  <request>
    <method value="PUT"/>
    <url value="Observation/ID1493-lab"/>
  </request>
</entry>
<entry>
  <resource>
    
    
  <Observation>
  <id value="ID1494-lab"/>
    <text>
      <status value="generated"/>
      <div xmlns="http://www.w3.org/1999/xhtml">2003-12-01: Trigl SerPl-mCnc = 84 mg/dL</div>
    </text>
    <code>
      <coding>
        <system value="http://loinc.org"/>
        <code value="2571-8"/>
        <display value="Trigl SerPl-mCnc"/>
      </coding>
    </code>
    <valueQuantity>
      <value value="84.0"/>
      <unit value="mg/dL"/>
      <system value="http://unitsofmeasure.org" />
      <code value=""/>
    </valueQuantity>
    
    <effectiveDateTime value="2003-12-01"/>
    <status value="final"/>
    <reliability value="ok"/>
    <subject>
      <reference value="Patient/ID1768562"/>
    </subject>
    <referenceRange>
      <meaning>
        <coding>
         <system value="http://hl7.org/fhir/referencerange-meaning"/>
         <code value="normal"/>
         <display value="Normal Range"/>
       </coding>
      </meaning>
        <low>
          <value value="10.0"/>
          <unit value="mg/dL"/>
          <code value="mg/dL"/>
          <system value="http://unitsofmeasure.org"/>
        </low>
        <high>
          <value value="190.0"/>
          <unit value="mg/dL"/>
          <code value="mg/dL"/>
          <system value="http://unitsofmeasure.org"/>
        </high>
    </referenceRange>
    
  </Observation>
  
  </resource>
  <request>
    <method value="PUT"/>
    <url value="Observation/ID1494-lab"/>
  </request>
</entry>
<entry>
  <resource>
    
    
  <Observation>
  <id value="ID1495-lab"/>
    <text>
      <status value="generated"/>
      <div xmlns="http://www.w3.org/1999/xhtml">2003-12-02: Platelet # Bld = 180 10*3/uL</div>
    </text>
    <code>
      <coding>
        <system value="http://loinc.org"/>
        <code value="26515-7"/>
        <display value="Platelet # Bld"/>
      </coding>
    </code>
    <valueQuantity>
      <value value="180.0"/>
      <unit value="10*3/uL"/>
      <system value="http://unitsofmeasure.org" />
      <code value=""/>
    </valueQuantity>
    
    <effectiveDateTime value="2003-12-02"/>
    <status value="final"/>
    <reliability value="ok"/>
    <subject>
      <reference value="Patient/ID1768562"/>
    </subject>
    <referenceRange>
      <meaning>
        <coding>
         <system value="http://hl7.org/fhir/referencerange-meaning"/>
         <code value="normal"/>
         <display value="Normal Range"/>
       </coding>
      </meaning>
        <low>
          <value value="150.0"/>
          <unit value="10*3/uL"/>
          <code value="10*3/uL"/>
          <system value="http://unitsofmeasure.org"/>
        </low>
        <high>
          <value value="450.0"/>
          <unit value="10*3/uL"/>
          <code value="10*3/uL"/>
          <system value="http://unitsofmeasure.org"/>
        </high>
    </referenceRange>
    
  </Observation>
  
  </resource>
  <request>
    <method value="PUT"/>
    <url value="Observation/ID1495-lab"/>
  </request>
</entry>
<entry>
  <resource>
    
    
  <Observation>
  <id value="ID1496-lab"/>
    <text>
      <status value="generated"/>
      <div xmlns="http://www.w3.org/1999/xhtml">2003-12-02: MCV RBC = 91.9 fL</div>
    </text>
    <code>
      <coding>
        <system value="http://loinc.org"/>
        <code value="30428-7"/>
        <display value="MCV RBC"/>
      </coding>
    </code>
    <valueQuantity>
      <value value="91.9"/>
      <unit value="fL"/>
      <system value="http://unitsofmeasure.org" />
      <code value=""/>
    </valueQuantity>
    
    <effectiveDateTime value="2003-12-02"/>
    <status value="final"/>
    <reliability value="ok"/>
    <subject>
      <reference value="Patient/ID1768562"/>
    </subject>
    <referenceRange>
      <meaning>
        <coding>
         <system value="http://hl7.org/fhir/referencerange-meaning"/>
         <code value="normal"/>
         <display value="Normal Range"/>
       </coding>
      </meaning>
        <low>
          <value value="78.0"/>
          <unit value="fL"/>
          <code value="fL"/>
          <system value="http://unitsofmeasure.org"/>
        </low>
        <high>
          <value value="100.0"/>
          <unit value="fL"/>
          <code value="fL"/>
          <system value="http://unitsofmeasure.org"/>
        </high>
    </referenceRange>
    
  </Observation>
  
  </resource>
  <request>
    <method value="PUT"/>
    <url value="Observation/ID1496-lab"/>
  </request>
</entry>
<entry>
  <resource>
    
    
  <Observation>
  <id value="ID1497-lab"/>
    <text>
      <status value="generated"/>
      <div xmlns="http://www.w3.org/1999/xhtml">2003-12-02: MCH RBC Qn Auto = 32.2 pg</div>
    </text>
    <code>
      <coding>
        <system value="http://loinc.org"/>
        <code value="785-6"/>
        <display value="MCH RBC Qn Auto"/>
      </coding>
    </code>
    <valueQuantity>
      <value value="32.2"/>
      <unit value="pg"/>
      <system value="http://unitsofmeasure.org" />
      <code value=""/>
    </valueQuantity>
    
    <effectiveDateTime value="2003-12-02"/>
    <status value="final"/>
    <reliability value="ok"/>
    <subject>
      <reference value="Patient/ID1768562"/>
    </subject>
    <referenceRange>
      <meaning>
        <coding>
         <system value="http://hl7.org/fhir/referencerange-meaning"/>
         <code value="normal"/>
         <display value="Normal Range"/>
       </coding>
      </meaning>
        <low>
          <value value="27.0"/>
          <unit value="pg"/>
          <code value="pg"/>
          <system value="http://unitsofmeasure.org"/>
        </low>
        <high>
          <value value="31.0"/>
          <unit value="pg"/>
          <code value="pg"/>
          <system value="http://unitsofmeasure.org"/>
        </high>
    </referenceRange>
    
  </Observation>
  
  </resource>
  <request>
    <method value="PUT"/>
    <url value="Observation/ID1497-lab"/>
  </request>
</entry>
<entry>
  <resource>
    
    
  <Observation>
  <id value="ID1498-lab"/>
    <text>
      <status value="generated"/>
      <div xmlns="http://www.w3.org/1999/xhtml">2003-12-02: MCHC RBC Auto-mCnc = 35.1 g/dL</div>
    </text>
    <code>
      <coding>
        <system value="http://loinc.org"/>
        <code value="786-4"/>
        <display value="MCHC RBC Auto-mCnc"/>
      </coding>
    </code>
    <valueQuantity>
      <value value="35.1"/>
      <unit value="g/dL"/>
      <system value="http://unitsofmeasure.org" />
      <code value=""/>
    </valueQuantity>
    
    <effectiveDateTime value="2003-12-02"/>
    <status value="final"/>
    <reliability value="ok"/>
    <subject>
      <reference value="Patient/ID1768562"/>
    </subject>
    <referenceRange>
      <meaning>
        <coding>
         <system value="http://hl7.org/fhir/referencerange-meaning"/>
         <code value="normal"/>
         <display value="Normal Range"/>
       </coding>
      </meaning>
        <low>
          <value value="32.0"/>
          <unit value="g/dL"/>
          <code value="g/dL"/>
          <system value="http://unitsofmeasure.org"/>
        </low>
        <high>
          <value value="36.0"/>
          <unit value="g/dL"/>
          <code value="g/dL"/>
          <system value="http://unitsofmeasure.org"/>
        </high>
    </referenceRange>
    
  </Observation>
  
  </resource>
  <request>
    <method value="PUT"/>
    <url value="Observation/ID1498-lab"/>
  </request>
</entry>
<entry>
  <resource>
    
    
  <Observation>
  <id value="ID1499-lab"/>
    <text>
      <status value="generated"/>
      <div xmlns="http://www.w3.org/1999/xhtml">2003-12-02: Sodium SerPl-sCnc = 138 mmol/L</div>
    </text>
    <code>
      <coding>
        <system value="http://loinc.org"/>
        <code value="2951-2"/>
        <display value="Sodium SerPl-sCnc"/>
      </coding>
    </code>
    <valueQuantity>
      <value value="138.0"/>
      <unit value="mmol/L"/>
      <system value="http://unitsofmeasure.org" />
      <code value=""/>
    </valueQuantity>
    
    <effectiveDateTime value="2003-12-02"/>
    <status value="final"/>
    <reliability value="ok"/>
    <subject>
      <reference value="Patient/ID1768562"/>
    </subject>
    <referenceRange>
      <meaning>
        <coding>
         <system value="http://hl7.org/fhir/referencerange-meaning"/>
         <code value="normal"/>
         <display value="Normal Range"/>
       </coding>
      </meaning>
        <low>
          <value value="137.0"/>
          <unit value="mmol/L"/>
          <code value="mmol/L"/>
          <system value="http://unitsofmeasure.org"/>
        </low>
        <high>
          <value value="145.0"/>
          <unit value="mmol/L"/>
          <code value="mmol/L"/>
          <system value="http://unitsofmeasure.org"/>
        </high>
    </referenceRange>
    
  </Observation>
  
  </resource>
  <request>
    <method value="PUT"/>
    <url value="Observation/ID1499-lab"/>
  </request>
</entry>
<entry>
  <resource>
    
    
  <Observation>
  <id value="ID1500-lab"/>
    <text>
      <status value="generated"/>
      <div xmlns="http://www.w3.org/1999/xhtml">2003-12-02: Creat SerPl-mCnc = 1 mg/dL</div>
    </text>
    <code>
      <coding>
        <system value="http://loinc.org"/>
        <code value="2160-0"/>
        <display value="Creat SerPl-mCnc"/>
      </coding>
    </code>
    <valueQuantity>
      <value value="1.0"/>
      <unit value="mg/dL"/>
      <system value="http://unitsofmeasure.org" />
      <code value=""/>
    </valueQuantity>
    
    <effectiveDateTime value="2003-12-02"/>
    <status value="final"/>
    <reliability value="ok"/>
    <subject>
      <reference value="Patient/ID1768562"/>
    </subject>
    <referenceRange>
      <meaning>
        <coding>
         <system value="http://hl7.org/fhir/referencerange-meaning"/>
         <code value="normal"/>
         <display value="Normal Range"/>
       </coding>
      </meaning>
        <low>
          <value value="0.8"/>
          <unit value="mg/dL"/>
          <code value="mg/dL"/>
          <system value="http://unitsofmeasure.org"/>
        </low>
        <high>
          <value value="1.5"/>
          <unit value="mg/dL"/>
          <code value="mg/dL"/>
          <system value="http://unitsofmeasure.org"/>
        </high>
    </referenceRange>
    
  </Observation>
  
  </resource>
  <request>
    <method value="PUT"/>
    <url value="Observation/ID1500-lab"/>
  </request>
</entry>
<entry>
  <resource>
    
    
  <Observation>
  <id value="ID1501-lab"/>
    <text>
      <status value="generated"/>
      <div xmlns="http://www.w3.org/1999/xhtml">2003-12-02: Potassium SerPl-sCnc = 4 mmol/L</div>
    </text>
    <code>
      <coding>
        <system value="http://loinc.org"/>
        <code value="2823-3"/>
        <display value="Potassium SerPl-sCnc"/>
      </coding>
    </code>
    <valueQuantity>
      <value value="4.0"/>
      <unit value="mmol/L"/>
      <system value="http://unitsofmeasure.org" />
      <code value=""/>
    </valueQuantity>
    
    <effectiveDateTime value="2003-12-02"/>
    <status value="final"/>
    <reliability value="ok"/>
    <subject>
      <reference value="Patient/ID1768562"/>
    </subject>
    <referenceRange>
      <meaning>
        <coding>
         <system value="http://hl7.org/fhir/referencerange-meaning"/>
         <code value="normal"/>
         <display value="Normal Range"/>
       </coding>
      </meaning>
        <low>
          <value value="3.6"/>
          <unit value="mmol/L"/>
          <code value="mmol/L"/>
          <system value="http://unitsofmeasure.org"/>
        </low>
        <high>
          <value value="5.5"/>
          <unit value="mmol/L"/>
          <code value="mmol/L"/>
          <system value="http://unitsofmeasure.org"/>
        </high>
    </referenceRange>
    
  </Observation>
  
  </resource>
  <request>
    <method value="PUT"/>
    <url value="Observation/ID1501-lab"/>
  </request>
</entry>
<entry>
  <resource>
    
    
  <Observation>
  <id value="ID1502-lab"/>
    <text>
      <status value="generated"/>
      <div xmlns="http://www.w3.org/1999/xhtml">2003-12-02: Chloride SerPl-sCnc = 107 mmol/L</div>
    </text>
    <code>
      <coding>
        <system value="http://loinc.org"/>
        <code value="2075-0"/>
        <display value="Chloride SerPl-sCnc"/>
      </coding>
    </code>
    <valueQuantity>
      <value value="107.0"/>
      <unit value="mmol/L"/>
      <system value="http://unitsofmeasure.org" />
      <code value=""/>
    </valueQuantity>
    
    <effectiveDateTime value="2003-12-02"/>
    <status value="final"/>
    <reliability value="ok"/>
    <subject>
      <reference value="Patient/ID1768562"/>
    </subject>
    <referenceRange>
      <meaning>
        <coding>
         <system value="http://hl7.org/fhir/referencerange-meaning"/>
         <code value="normal"/>
         <display value="Normal Range"/>
       </coding>
      </meaning>
        <low>
          <value value="98.0"/>
          <unit value="mmol/L"/>
          <code value="mmol/L"/>
          <system value="http://unitsofmeasure.org"/>
        </low>
        <high>
          <value value="107.0"/>
          <unit value="mmol/L"/>
          <code value="mmol/L"/>
          <system value="http://unitsofmeasure.org"/>
        </high>
    </referenceRange>
    
  </Observation>
  
  </resource>
  <request>
    <method value="PUT"/>
    <url value="Observation/ID1502-lab"/>
  </request>
</entry>
<entry>
  <resource>
    
    
  <Observation>
  <id value="ID1503-lab"/>
    <text>
      <status value="generated"/>
      <div xmlns="http://www.w3.org/1999/xhtml">2003-12-02: Hgb Bld-mCnc = 12.3 g/dL</div>
    </text>
    <code>
      <coding>
        <system value="http://loinc.org"/>
        <code value="718-7"/>
        <display value="Hgb Bld-mCnc"/>
      </coding>
    </code>
    <valueQuantity>
      <value value="12.3"/>
      <unit value="g/dL"/>
      <system value="http://unitsofmeasure.org" />
      <code value=""/>
    </valueQuantity>
    
    <effectiveDateTime value="2003-12-02"/>
    <status value="final"/>
    <reliability value="ok"/>
    <subject>
      <reference value="Patient/ID1768562"/>
    </subject>
    <referenceRange>
      <meaning>
        <coding>
         <system value="http://hl7.org/fhir/referencerange-meaning"/>
         <code value="normal"/>
         <display value="Normal Range"/>
       </coding>
      </meaning>
        <low>
          <value value="13.5"/>
          <unit value="g/dL"/>
          <code value="g/dL"/>
          <system value="http://unitsofmeasure.org"/>
        </low>
        <high>
          <value value="18.0"/>
          <unit value="g/dL"/>
          <code value="g/dL"/>
          <system value="http://unitsofmeasure.org"/>
        </high>
    </referenceRange>
    
  </Observation>
  
  </resource>
  <request>
    <method value="PUT"/>
    <url value="Observation/ID1503-lab"/>
  </request>
</entry>
<entry>
  <resource>
    
    
  <Observation>
  <id value="ID1504-lab"/>
    <text>
      <status value="generated"/>
      <div xmlns="http://www.w3.org/1999/xhtml">2003-12-02: WBC # Bld = 8.4 10*3/uL</div>
    </text>
    <code>
      <coding>
        <system value="http://loinc.org"/>
        <code value="26464-8"/>
        <display value="WBC # Bld"/>
      </coding>
    </code>
    <valueQuantity>
      <value value="8.4"/>
      <unit value="10*3/uL"/>
      <system value="http://unitsofmeasure.org" />
      <code value=""/>
    </valueQuantity>
    
    <effectiveDateTime value="2003-12-02"/>
    <status value="final"/>
    <reliability value="ok"/>
    <subject>
      <reference value="Patient/ID1768562"/>
    </subject>
    <referenceRange>
      <meaning>
        <coding>
         <system value="http://hl7.org/fhir/referencerange-meaning"/>
         <code value="normal"/>
         <display value="Normal Range"/>
       </coding>
      </meaning>
        <low>
          <value value="4.0"/>
          <unit value="10*3/uL"/>
          <code value="10*3/uL"/>
          <system value="http://unitsofmeasure.org"/>
        </low>
        <high>
          <value value="10.5"/>
          <unit value="10*3/uL"/>
          <code value="10*3/uL"/>
          <system value="http://unitsofmeasure.org"/>
        </high>
    </referenceRange>
    
  </Observation>
  
  </resource>
  <request>
    <method value="PUT"/>
    <url value="Observation/ID1504-lab"/>
  </request>
</entry>
<entry>
  <resource>
    
    
  <Observation>
  <id value="ID1505-lab"/>
    <text>
      <status value="generated"/>
      <div xmlns="http://www.w3.org/1999/xhtml">2003-12-02: RBC # Bld Auto = 3.82 10*6/uL</div>
    </text>
    <code>
      <coding>
        <system value="http://loinc.org"/>
        <code value="789-8"/>
        <display value="RBC # Bld Auto"/>
      </coding>
    </code>
    <valueQuantity>
      <value value="3.82"/>
      <unit value="10*6/uL"/>
      <system value="http://unitsofmeasure.org" />
      <code value=""/>
    </valueQuantity>
    
    <effectiveDateTime value="2003-12-02"/>
    <status value="final"/>
    <reliability value="ok"/>
    <subject>
      <reference value="Patient/ID1768562"/>
    </subject>
    <referenceRange>
      <meaning>
        <coding>
         <system value="http://hl7.org/fhir/referencerange-meaning"/>
         <code value="normal"/>
         <display value="Normal Range"/>
       </coding>
      </meaning>
        <low>
          <value value="4.7"/>
          <unit value="10*6/uL"/>
          <code value="10*6/uL"/>
          <system value="http://unitsofmeasure.org"/>
        </low>
        <high>
          <value value="6.0"/>
          <unit value="10*6/uL"/>
          <code value="10*6/uL"/>
          <system value="http://unitsofmeasure.org"/>
        </high>
    </referenceRange>
    
  </Observation>
  
  </resource>
  <request>
    <method value="PUT"/>
    <url value="Observation/ID1505-lab"/>
  </request>
</entry>
<entry>
  <resource>
    
    
  <Observation>
  <id value="ID1506-lab"/>
    <text>
      <status value="generated"/>
      <div xmlns="http://www.w3.org/1999/xhtml">2003-12-02: Glucose SerPl-mCnc = 86 mg/dL</div>
    </text>
    <code>
      <coding>
        <system value="http://loinc.org"/>
        <code value="2345-7"/>
        <display value="Glucose SerPl-mCnc"/>
      </coding>
    </code>
    <valueQuantity>
      <value value="86.0"/>
      <unit value="mg/dL"/>
      <system value="http://unitsofmeasure.org" />
      <code value=""/>
    </valueQuantity>
    
    <effectiveDateTime value="2003-12-02"/>
    <status value="final"/>
    <reliability value="ok"/>
    <subject>
      <reference value="Patient/ID1768562"/>
    </subject>
    <referenceRange>
      <meaning>
        <coding>
         <system value="http://hl7.org/fhir/referencerange-meaning"/>
         <code value="normal"/>
         <display value="Normal Range"/>
       </coding>
      </meaning>
        <low>
          <value value="70.0"/>
          <unit value="mg/dL"/>
          <code value="mg/dL"/>
          <system value="http://unitsofmeasure.org"/>
        </low>
        <high>
          <value value="110.0"/>
          <unit value="mg/dL"/>
          <code value="mg/dL"/>
          <system value="http://unitsofmeasure.org"/>
        </high>
    </referenceRange>
    
  </Observation>
  
  </resource>
  <request>
    <method value="PUT"/>
    <url value="Observation/ID1506-lab"/>
  </request>
</entry>
<entry>
  <resource>
    
    
  <Observation>
  <id value="ID1507-lab"/>
    <text>
      <status value="generated"/>
      <div xmlns="http://www.w3.org/1999/xhtml">2003-12-02: BUN SerPl-mCnc = 16 mg/dL</div>
    </text>
    <code>
      <coding>
        <system value="http://loinc.org"/>
        <code value="3094-0"/>
        <display value="BUN SerPl-mCnc"/>
      </coding>
    </code>
    <valueQuantity>
      <value value="16.0"/>
      <unit value="mg/dL"/>
      <system value="http://unitsofmeasure.org" />
      <code value=""/>
    </valueQuantity>
    
    <effectiveDateTime value="2003-12-02"/>
    <status value="final"/>
    <reliability value="ok"/>
    <subject>
      <reference value="Patient/ID1768562"/>
    </subject>
    <referenceRange>
      <meaning>
        <coding>
         <system value="http://hl7.org/fhir/referencerange-meaning"/>
         <code value="normal"/>
         <display value="Normal Range"/>
       </coding>
      </meaning>
        <low>
          <value value="9.0"/>
          <unit value="mg/dL"/>
          <code value="mg/dL"/>
          <system value="http://unitsofmeasure.org"/>
        </low>
        <high>
          <value value="20.0"/>
          <unit value="mg/dL"/>
          <code value="mg/dL"/>
          <system value="http://unitsofmeasure.org"/>
        </high>
    </referenceRange>
    
  </Observation>
  
  </resource>
  <request>
    <method value="PUT"/>
    <url value="Observation/ID1507-lab"/>
  </request>
</entry>
<entry>
  <resource>
    
    
  <Observation>
  <id value="ID1508-lab"/>
    <text>
      <status value="generated"/>
      <div xmlns="http://www.w3.org/1999/xhtml">2003-12-02: PMV Bld = 7.1 fL</div>
    </text>
    <code>
      <coding>
        <system value="http://loinc.org"/>
        <code value="28542-9"/>
        <display value="PMV Bld"/>
      </coding>
    </code>
    <valueQuantity>
      <value value="7.1"/>
      <unit value="fL"/>
      <system value="http://unitsofmeasure.org" />
      <code value=""/>
    </valueQuantity>
    
    <effectiveDateTime value="2003-12-02"/>
    <status value="final"/>
    <reliability value="ok"/>
    <subject>
      <reference value="Patient/ID1768562"/>
    </subject>
    <referenceRange>
      <meaning>
        <coding>
         <system value="http://hl7.org/fhir/referencerange-meaning"/>
         <code value="normal"/>
         <display value="Normal Range"/>
       </coding>
      </meaning>
        <low>
          <value value="6.0"/>
          <unit value="fL"/>
          <code value="fL"/>
          <system value="http://unitsofmeasure.org"/>
        </low>
        <high>
          <value value="9.5"/>
          <unit value="fL"/>
          <code value="fL"/>
          <system value="http://unitsofmeasure.org"/>
        </high>
    </referenceRange>
    
  </Observation>
  
  </resource>
  <request>
    <method value="PUT"/>
    <url value="Observation/ID1508-lab"/>
  </request>
</entry>
<entry>
  <resource>
    
    
  <Observation>
  <id value="ID1509-lab"/>
    <text>
      <status value="generated"/>
      <div xmlns="http://www.w3.org/1999/xhtml">2003-12-02: RDW RBC-Rto = 13.4 %</div>
    </text>
    <code>
      <coding>
        <system value="http://loinc.org"/>
        <code value="30385-9"/>
        <display value="RDW RBC-Rto"/>
      </coding>
    </code>
    <valueQuantity>
      <value value="13.4"/>
      <unit value="%"/>
      <system value="http://unitsofmeasure.org" />
      <code value=""/>
    </valueQuantity>
    
    <effectiveDateTime value="2003-12-02"/>
    <status value="final"/>
    <reliability value="ok"/>
    <subject>
      <reference value="Patient/ID1768562"/>
    </subject>
    <referenceRange>
      <meaning>
        <coding>
         <system value="http://hl7.org/fhir/referencerange-meaning"/>
         <code value="normal"/>
         <display value="Normal Range"/>
       </coding>
      </meaning>
        <low>
          <value value="11.5"/>
          <unit value="%"/>
          <code value="%"/>
          <system value="http://unitsofmeasure.org"/>
        </low>
        <high>
          <value value="14.0"/>
          <unit value="%"/>
          <code value="%"/>
          <system value="http://unitsofmeasure.org"/>
        </high>
    </referenceRange>
    
  </Observation>
  
  </resource>
  <request>
    <method value="PUT"/>
    <url value="Observation/ID1509-lab"/>
  </request>
</entry>
<entry>
  <resource>
    
    
  <Observation>
  <id value="ID1510-lab"/>
    <text>
      <status value="generated"/>
      <div xmlns="http://www.w3.org/1999/xhtml">2003-12-02: Calcium SerPl-mCnc = 8.4 mg/dL</div>
    </text>
    <code>
      <coding>
        <system value="http://loinc.org"/>
        <code value="17861-6"/>
        <display value="Calcium SerPl-mCnc"/>
      </coding>
    </code>
    <valueQuantity>
      <value value="8.4"/>
      <unit value="mg/dL"/>
      <system value="http://unitsofmeasure.org" />
      <code value=""/>
    </valueQuantity>
    
    <effectiveDateTime value="2003-12-02"/>
    <status value="final"/>
    <reliability value="ok"/>
    <subject>
      <reference value="Patient/ID1768562"/>
    </subject>
    <referenceRange>
      <meaning>
        <coding>
         <system value="http://hl7.org/fhir/referencerange-meaning"/>
         <code value="normal"/>
         <display value="Normal Range"/>
       </coding>
      </meaning>
        <low>
          <value value="8.4"/>
          <unit value="mg/dL"/>
          <code value="mg/dL"/>
          <system value="http://unitsofmeasure.org"/>
        </low>
        <high>
          <value value="10.2"/>
          <unit value="mg/dL"/>
          <code value="mg/dL"/>
          <system value="http://unitsofmeasure.org"/>
        </high>
    </referenceRange>
    
  </Observation>
  
  </resource>
  <request>
    <method value="PUT"/>
    <url value="Observation/ID1510-lab"/>
  </request>
</entry>
<entry>
  <resource>
    
    
  <Observation>
  <id value="ID1511-lab"/>
    <text>
      <status value="generated"/>
      <div xmlns="http://www.w3.org/1999/xhtml">2004-01-03: Platelet # Bld = 215 10*3/uL</div>
    </text>
    <code>
      <coding>
        <system value="http://loinc.org"/>
        <code value="26515-7"/>
        <display value="Platelet # Bld"/>
      </coding>
    </code>
    <valueQuantity>
      <value value="215.0"/>
      <unit value="10*3/uL"/>
      <system value="http://unitsofmeasure.org" />
      <code value=""/>
    </valueQuantity>
    
    <effectiveDateTime value="2004-01-03"/>
    <status value="final"/>
    <reliability value="ok"/>
    <subject>
      <reference value="Patient/ID1768562"/>
    </subject>
    <referenceRange>
      <meaning>
        <coding>
         <system value="http://hl7.org/fhir/referencerange-meaning"/>
         <code value="normal"/>
         <display value="Normal Range"/>
       </coding>
      </meaning>
        <low>
          <value value="150.0"/>
          <unit value="10*3/uL"/>
          <code value="10*3/uL"/>
          <system value="http://unitsofmeasure.org"/>
        </low>
        <high>
          <value value="450.0"/>
          <unit value="10*3/uL"/>
          <code value="10*3/uL"/>
          <system value="http://unitsofmeasure.org"/>
        </high>
    </referenceRange>
    
  </Observation>
  
  </resource>
  <request>
    <method value="PUT"/>
    <url value="Observation/ID1511-lab"/>
  </request>
</entry>
<entry>
  <resource>
    
    
  <Observation>
  <id value="ID1512-lab"/>
    <text>
      <status value="generated"/>
      <div xmlns="http://www.w3.org/1999/xhtml">2004-01-03: AST SerPl-cCnc = 25 U/L</div>
    </text>
    <code>
      <coding>
        <system value="http://loinc.org"/>
        <code value="1920-8"/>
        <display value="AST SerPl-cCnc"/>
      </coding>
    </code>
    <valueQuantity>
      <value value="25.0"/>
      <unit value="U/L"/>
      <system value="http://unitsofmeasure.org" />
      <code value=""/>
    </valueQuantity>
    
    <effectiveDateTime value="2004-01-03"/>
    <status value="final"/>
    <reliability value="ok"/>
    <subject>
      <reference value="Patient/ID1768562"/>
    </subject>
    <referenceRange>
      <meaning>
        <coding>
         <system value="http://hl7.org/fhir/referencerange-meaning"/>
         <code value="normal"/>
         <display value="Normal Range"/>
       </coding>
      </meaning>
        <low>
          <value value="17.0"/>
          <unit value="U/L"/>
          <code value="U/L"/>
          <system value="http://unitsofmeasure.org"/>
        </low>
        <high>
          <value value="59.0"/>
          <unit value="U/L"/>
          <code value="U/L"/>
          <system value="http://unitsofmeasure.org"/>
        </high>
    </referenceRange>
    
  </Observation>
  
  </resource>
  <request>
    <method value="PUT"/>
    <url value="Observation/ID1512-lab"/>
  </request>
</entry>
<entry>
  <resource>
    
    
  <Observation>
  <id value="ID1513-lab"/>
    <text>
      <status value="generated"/>
      <div xmlns="http://www.w3.org/1999/xhtml">2004-01-03: Bilirub SerPl-mCnc = 0.9 mg/dL</div>
    </text>
    <code>
      <coding>
        <system value="http://loinc.org"/>
        <code value="1975-2"/>
        <display value="Bilirub SerPl-mCnc"/>
      </coding>
    </code>
    <valueQuantity>
      <value value="0.9"/>
      <unit value="mg/dL"/>
      <system value="http://unitsofmeasure.org" />
      <code value=""/>
    </valueQuantity>
    
    <effectiveDateTime value="2004-01-03"/>
    <status value="final"/>
    <reliability value="ok"/>
    <subject>
      <reference value="Patient/ID1768562"/>
    </subject>
    <referenceRange>
      <meaning>
        <coding>
         <system value="http://hl7.org/fhir/referencerange-meaning"/>
         <code value="normal"/>
         <display value="Normal Range"/>
       </coding>
      </meaning>
        <low>
          <value value="0.2"/>
          <unit value="mg/dL"/>
          <code value="mg/dL"/>
          <system value="http://unitsofmeasure.org"/>
        </low>
        <high>
          <value value="1.3"/>
          <unit value="mg/dL"/>
          <code value="mg/dL"/>
          <system value="http://unitsofmeasure.org"/>
        </high>
    </referenceRange>
    
  </Observation>
  
  </resource>
  <request>
    <method value="PUT"/>
    <url value="Observation/ID1513-lab"/>
  </request>
</entry>
<entry>
  <resource>
    
    
  <Observation>
  <id value="ID1514-lab"/>
    <text>
      <status value="generated"/>
      <div xmlns="http://www.w3.org/1999/xhtml">2004-01-03: Albumin SerPl-mCnc = 3.6 g/dL</div>
    </text>
    <code>
      <coding>
        <system value="http://loinc.org"/>
        <code value="1751-7"/>
        <display value="Albumin SerPl-mCnc"/>
      </coding>
    </code>
    <valueQuantity>
      <value value="3.6"/>
      <unit value="g/dL"/>
      <system value="http://unitsofmeasure.org" />
      <code value=""/>
    </valueQuantity>
    
    <effectiveDateTime value="2004-01-03"/>
    <status value="final"/>
    <reliability value="ok"/>
    <subject>
      <reference value="Patient/ID1768562"/>
    </subject>
    <referenceRange>
      <meaning>
        <coding>
         <system value="http://hl7.org/fhir/referencerange-meaning"/>
         <code value="normal"/>
         <display value="Normal Range"/>
       </coding>
      </meaning>
        <low>
          <value value="3.5"/>
          <unit value="g/dL"/>
          <code value="g/dL"/>
          <system value="http://unitsofmeasure.org"/>
        </low>
        <high>
          <value value="5.0"/>
          <unit value="g/dL"/>
          <code value="g/dL"/>
          <system value="http://unitsofmeasure.org"/>
        </high>
    </referenceRange>
    
  </Observation>
  
  </resource>
  <request>
    <method value="PUT"/>
    <url value="Observation/ID1514-lab"/>
  </request>
</entry>
<entry>
  <resource>
    
    
  <Observation>
  <id value="ID1515-lab"/>
    <text>
      <status value="generated"/>
      <div xmlns="http://www.w3.org/1999/xhtml">2004-01-03: Prot SerPl-mCnc = 7.7 g/dL</div>
    </text>
    <code>
      <coding>
        <system value="http://loinc.org"/>
        <code value="2885-2"/>
        <display value="Prot SerPl-mCnc"/>
      </coding>
    </code>
    <valueQuantity>
      <value value="7.7"/>
      <unit value="g/dL"/>
      <system value="http://unitsofmeasure.org" />
      <code value=""/>
    </valueQuantity>
    
    <effectiveDateTime value="2004-01-03"/>
    <status value="final"/>
    <reliability value="ok"/>
    <subject>
      <reference value="Patient/ID1768562"/>
    </subject>
    <referenceRange>
      <meaning>
        <coding>
         <system value="http://hl7.org/fhir/referencerange-meaning"/>
         <code value="normal"/>
         <display value="Normal Range"/>
       </coding>
      </meaning>
        <low>
          <value value="6.3"/>
          <unit value="g/dL"/>
          <code value="g/dL"/>
          <system value="http://unitsofmeasure.org"/>
        </low>
        <high>
          <value value="8.2"/>
          <unit value="g/dL"/>
          <code value="g/dL"/>
          <system value="http://unitsofmeasure.org"/>
        </high>
    </referenceRange>
    
  </Observation>
  
  </resource>
  <request>
    <method value="PUT"/>
    <url value="Observation/ID1515-lab"/>
  </request>
</entry>
<entry>
  <resource>
    
    
  <Observation>
  <id value="ID1516-lab"/>
    <text>
      <status value="generated"/>
      <div xmlns="http://www.w3.org/1999/xhtml">2004-01-03: ALP SerPl-cCnc = 99 U/L</div>
    </text>
    <code>
      <coding>
        <system value="http://loinc.org"/>
        <code value="6768-6"/>
        <display value="ALP SerPl-cCnc"/>
      </coding>
    </code>
    <valueQuantity>
      <value value="99.0"/>
      <unit value="U/L"/>
      <system value="http://unitsofmeasure.org" />
      <code value=""/>
    </valueQuantity>
    
    <effectiveDateTime value="2004-01-03"/>
    <status value="final"/>
    <reliability value="ok"/>
    <subject>
      <reference value="Patient/ID1768562"/>
    </subject>
    <referenceRange>
      <meaning>
        <coding>
         <system value="http://hl7.org/fhir/referencerange-meaning"/>
         <code value="normal"/>
         <display value="Normal Range"/>
       </coding>
      </meaning>
        <low>
          <value value="38.0"/>
          <unit value="U/L"/>
          <code value="U/L"/>
          <system value="http://unitsofmeasure.org"/>
        </low>
        <high>
          <value value="126.0"/>
          <unit value="U/L"/>
          <code value="U/L"/>
          <system value="http://unitsofmeasure.org"/>
        </high>
    </referenceRange>
    
  </Observation>
  
  </resource>
  <request>
    <method value="PUT"/>
    <url value="Observation/ID1516-lab"/>
  </request>
</entry>
<entry>
  <resource>
    
    
  <Observation>
  <id value="ID1517-lab"/>
    <text>
      <status value="generated"/>
      <div xmlns="http://www.w3.org/1999/xhtml">2004-01-03: MCHC RBC Auto-mCnc = 33.8 g/dL</div>
    </text>
    <code>
      <coding>
        <system value="http://loinc.org"/>
        <code value="786-4"/>
        <display value="MCHC RBC Auto-mCnc"/>
      </coding>
    </code>
    <valueQuantity>
      <value value="33.8"/>
      <unit value="g/dL"/>
      <system value="http://unitsofmeasure.org" />
      <code value=""/>
    </valueQuantity>
    
    <effectiveDateTime value="2004-01-03"/>
    <status value="final"/>
    <reliability value="ok"/>
    <subject>
      <reference value="Patient/ID1768562"/>
    </subject>
    <referenceRange>
      <meaning>
        <coding>
         <system value="http://hl7.org/fhir/referencerange-meaning"/>
         <code value="normal"/>
         <display value="Normal Range"/>
       </coding>
      </meaning>
        <low>
          <value value="32.0"/>
          <unit value="g/dL"/>
          <code value="g/dL"/>
          <system value="http://unitsofmeasure.org"/>
        </low>
        <high>
          <value value="36.0"/>
          <unit value="g/dL"/>
          <code value="g/dL"/>
          <system value="http://unitsofmeasure.org"/>
        </high>
    </referenceRange>
    
  </Observation>
  
  </resource>
  <request>
    <method value="PUT"/>
    <url value="Observation/ID1517-lab"/>
  </request>
</entry>
<entry>
  <resource>
    
    
  <Observation>
  <id value="ID1518-lab"/>
    <text>
      <status value="generated"/>
      <div xmlns="http://www.w3.org/1999/xhtml">2004-01-03: MCH RBC Qn Auto = 29.5 pg</div>
    </text>
    <code>
      <coding>
        <system value="http://loinc.org"/>
        <code value="785-6"/>
        <display value="MCH RBC Qn Auto"/>
      </coding>
    </code>
    <valueQuantity>
      <value value="29.5"/>
      <unit value="pg"/>
      <system value="http://unitsofmeasure.org" />
      <code value=""/>
    </valueQuantity>
    
    <effectiveDateTime value="2004-01-03"/>
    <status value="final"/>
    <reliability value="ok"/>
    <subject>
      <reference value="Patient/ID1768562"/>
    </subject>
    <referenceRange>
      <meaning>
        <coding>
         <system value="http://hl7.org/fhir/referencerange-meaning"/>
         <code value="normal"/>
         <display value="Normal Range"/>
       </coding>
      </meaning>
        <low>
          <value value="27.0"/>
          <unit value="pg"/>
          <code value="pg"/>
          <system value="http://unitsofmeasure.org"/>
        </low>
        <high>
          <value value="31.0"/>
          <unit value="pg"/>
          <code value="pg"/>
          <system value="http://unitsofmeasure.org"/>
        </high>
    </referenceRange>
    
  </Observation>
  
  </resource>
  <request>
    <method value="PUT"/>
    <url value="Observation/ID1518-lab"/>
  </request>
</entry>
<entry>
  <resource>
    
    
  <Observation>
  <id value="ID1519-lab"/>
    <text>
      <status value="generated"/>
      <div xmlns="http://www.w3.org/1999/xhtml">2004-01-03: MCV RBC = 87.2 fL</div>
    </text>
    <code>
      <coding>
        <system value="http://loinc.org"/>
        <code value="30428-7"/>
        <display value="MCV RBC"/>
      </coding>
    </code>
    <valueQuantity>
      <value value="87.2"/>
      <unit value="fL"/>
      <system value="http://unitsofmeasure.org" />
      <code value=""/>
    </valueQuantity>
    
    <effectiveDateTime value="2004-01-03"/>
    <status value="final"/>
    <reliability value="ok"/>
    <subject>
      <reference value="Patient/ID1768562"/>
    </subject>
    <referenceRange>
      <meaning>
        <coding>
         <system value="http://hl7.org/fhir/referencerange-meaning"/>
         <code value="normal"/>
         <display value="Normal Range"/>
       </coding>
      </meaning>
        <low>
          <value value="78.0"/>
          <unit value="fL"/>
          <code value="fL"/>
          <system value="http://unitsofmeasure.org"/>
        </low>
        <high>
          <value value="100.0"/>
          <unit value="fL"/>
          <code value="fL"/>
          <system value="http://unitsofmeasure.org"/>
        </high>
    </referenceRange>
    
  </Observation>
  
  </resource>
  <request>
    <method value="PUT"/>
    <url value="Observation/ID1519-lab"/>
  </request>
</entry>
<entry>
  <resource>
    
    
  <Observation>
  <id value="ID1520-lab"/>
    <text>
      <status value="generated"/>
      <div xmlns="http://www.w3.org/1999/xhtml">2004-01-03: Sodium SerPl-sCnc = 138 mmol/L</div>
    </text>
    <code>
      <coding>
        <system value="http://loinc.org"/>
        <code value="2951-2"/>
        <display value="Sodium SerPl-sCnc"/>
      </coding>
    </code>
    <valueQuantity>
      <value value="138.0"/>
      <unit value="mmol/L"/>
      <system value="http://unitsofmeasure.org" />
      <code value=""/>
    </valueQuantity>
    
    <effectiveDateTime value="2004-01-03"/>
    <status value="final"/>
    <reliability value="ok"/>
    <subject>
      <reference value="Patient/ID1768562"/>
    </subject>
    <referenceRange>
      <meaning>
        <coding>
         <system value="http://hl7.org/fhir/referencerange-meaning"/>
         <code value="normal"/>
         <display value="Normal Range"/>
       </coding>
      </meaning>
        <low>
          <value value="137.0"/>
          <unit value="mmol/L"/>
          <code value="mmol/L"/>
          <system value="http://unitsofmeasure.org"/>
        </low>
        <high>
          <value value="145.0"/>
          <unit value="mmol/L"/>
          <code value="mmol/L"/>
          <system value="http://unitsofmeasure.org"/>
        </high>
    </referenceRange>
    
  </Observation>
  
  </resource>
  <request>
    <method value="PUT"/>
    <url value="Observation/ID1520-lab"/>
  </request>
</entry>
<entry>
  <resource>
    
    
  <Observation>
  <id value="ID1521-lab"/>
    <text>
      <status value="generated"/>
      <div xmlns="http://www.w3.org/1999/xhtml">2004-01-03: TSH SerPl DL&lt;=0.005 mU/L-aCnc = 3.33 mcU/mL</div>
    </text>
    <code>
      <coding>
        <system value="http://loinc.org"/>
        <code value="11580-8"/>
        <display value="TSH SerPl DL&lt;=0.005 mU/L-aCnc"/>
      </coding>
    </code>
    <valueQuantity>
      <value value="3.33"/>
      <unit value="mcU/mL"/>
      <system value="http://unitsofmeasure.org" />
      <code value=""/>
    </valueQuantity>
    
    <effectiveDateTime value="2004-01-03"/>
    <status value="final"/>
    <reliability value="ok"/>
    <subject>
      <reference value="Patient/ID1768562"/>
    </subject>
    <referenceRange>
      <meaning>
        <coding>
         <system value="http://hl7.org/fhir/referencerange-meaning"/>
         <code value="normal"/>
         <display value="Normal Range"/>
       </coding>
      </meaning>
        <low>
          <value value="0.4"/>
          <unit value="mcU/mL"/>
          <code value="mcU/mL"/>
          <system value="http://unitsofmeasure.org"/>
        </low>
        <high>
          <value value="5.5"/>
          <unit value="mcU/mL"/>
          <code value="mcU/mL"/>
          <system value="http://unitsofmeasure.org"/>
        </high>
    </referenceRange>
    
  </Observation>
  
  </resource>
  <request>
    <method value="PUT"/>
    <url value="Observation/ID1521-lab"/>
  </request>
</entry>
<entry>
  <resource>
    
    
  <Observation>
  <id value="ID1522-lab"/>
    <text>
      <status value="generated"/>
      <div xmlns="http://www.w3.org/1999/xhtml">2004-01-03: Calcium SerPl-mCnc = 8.7 mg/dL</div>
    </text>
    <code>
      <coding>
        <system value="http://loinc.org"/>
        <code value="17861-6"/>
        <display value="Calcium SerPl-mCnc"/>
      </coding>
    </code>
    <valueQuantity>
      <value value="8.7"/>
      <unit value="mg/dL"/>
      <system value="http://unitsofmeasure.org" />
      <code value=""/>
    </valueQuantity>
    
    <effectiveDateTime value="2004-01-03"/>
    <status value="final"/>
    <reliability value="ok"/>
    <subject>
      <reference value="Patient/ID1768562"/>
    </subject>
    <referenceRange>
      <meaning>
        <coding>
         <system value="http://hl7.org/fhir/referencerange-meaning"/>
         <code value="normal"/>
         <display value="Normal Range"/>
       </coding>
      </meaning>
        <low>
          <value value="8.4"/>
          <unit value="mg/dL"/>
          <code value="mg/dL"/>
          <system value="http://unitsofmeasure.org"/>
        </low>
        <high>
          <value value="10.2"/>
          <unit value="mg/dL"/>
          <code value="mg/dL"/>
          <system value="http://unitsofmeasure.org"/>
        </high>
    </referenceRange>
    
  </Observation>
  
  </resource>
  <request>
    <method value="PUT"/>
    <url value="Observation/ID1522-lab"/>
  </request>
</entry>
<entry>
  <resource>
    
    
  <Observation>
  <id value="ID1523-lab"/>
    <text>
      <status value="generated"/>
      <div xmlns="http://www.w3.org/1999/xhtml">2004-01-03: RBC # Bld Auto = 4.96 10*6/uL</div>
    </text>
    <code>
      <coding>
        <system value="http://loinc.org"/>
        <code value="789-8"/>
        <display value="RBC # Bld Auto"/>
      </coding>
    </code>
    <valueQuantity>
      <value value="4.96"/>
      <unit value="10*6/uL"/>
      <system value="http://unitsofmeasure.org" />
      <code value=""/>
    </valueQuantity>
    
    <effectiveDateTime value="2004-01-03"/>
    <status value="final"/>
    <reliability value="ok"/>
    <subject>
      <reference value="Patient/ID1768562"/>
    </subject>
    <referenceRange>
      <meaning>
        <coding>
         <system value="http://hl7.org/fhir/referencerange-meaning"/>
         <code value="normal"/>
         <display value="Normal Range"/>
       </coding>
      </meaning>
        <low>
          <value value="4.7"/>
          <unit value="10*6/uL"/>
          <code value="10*6/uL"/>
          <system value="http://unitsofmeasure.org"/>
        </low>
        <high>
          <value value="6.0"/>
          <unit value="10*6/uL"/>
          <code value="10*6/uL"/>
          <system value="http://unitsofmeasure.org"/>
        </high>
    </referenceRange>
    
  </Observation>
  
  </resource>
  <request>
    <method value="PUT"/>
    <url value="Observation/ID1523-lab"/>
  </request>
</entry>
<entry>
  <resource>
    
    
  <Observation>
  <id value="ID1524-lab"/>
    <text>
      <status value="generated"/>
      <div xmlns="http://www.w3.org/1999/xhtml">2004-01-03: Glucose SerPl-mCnc = 86 mg/dL</div>
    </text>
    <code>
      <coding>
        <system value="http://loinc.org"/>
        <code value="2345-7"/>
        <display value="Glucose SerPl-mCnc"/>
      </coding>
    </code>
    <valueQuantity>
      <value value="86.0"/>
      <unit value="mg/dL"/>
      <system value="http://unitsofmeasure.org" />
      <code value=""/>
    </valueQuantity>
    
    <effectiveDateTime value="2004-01-03"/>
    <status value="final"/>
    <reliability value="ok"/>
    <subject>
      <reference value="Patient/ID1768562"/>
    </subject>
    <referenceRange>
      <meaning>
        <coding>
         <system value="http://hl7.org/fhir/referencerange-meaning"/>
         <code value="normal"/>
         <display value="Normal Range"/>
       </coding>
      </meaning>
        <low>
          <value value="70.0"/>
          <unit value="mg/dL"/>
          <code value="mg/dL"/>
          <system value="http://unitsofmeasure.org"/>
        </low>
        <high>
          <value value="110.0"/>
          <unit value="mg/dL"/>
          <code value="mg/dL"/>
          <system value="http://unitsofmeasure.org"/>
        </high>
    </referenceRange>
    
  </Observation>
  
  </resource>
  <request>
    <method value="PUT"/>
    <url value="Observation/ID1524-lab"/>
  </request>
</entry>
<entry>
  <resource>
    
    
  <Observation>
  <id value="ID1525-lab"/>
    <text>
      <status value="generated"/>
      <div xmlns="http://www.w3.org/1999/xhtml">2004-01-03: BUN SerPl-mCnc = 24 mg/dL</div>
    </text>
    <code>
      <coding>
        <system value="http://loinc.org"/>
        <code value="3094-0"/>
        <display value="BUN SerPl-mCnc"/>
      </coding>
    </code>
    <valueQuantity>
      <value value="24.0"/>
      <unit value="mg/dL"/>
      <system value="http://unitsofmeasure.org" />
      <code value=""/>
    </valueQuantity>
    
    <effectiveDateTime value="2004-01-03"/>
    <status value="final"/>
    <reliability value="ok"/>
    <subject>
      <reference value="Patient/ID1768562"/>
    </subject>
    <referenceRange>
      <meaning>
        <coding>
         <system value="http://hl7.org/fhir/referencerange-meaning"/>
         <code value="normal"/>
         <display value="Normal Range"/>
       </coding>
      </meaning>
        <low>
          <value value="9.0"/>
          <unit value="mg/dL"/>
          <code value="mg/dL"/>
          <system value="http://unitsofmeasure.org"/>
        </low>
        <high>
          <value value="20.0"/>
          <unit value="mg/dL"/>
          <code value="mg/dL"/>
          <system value="http://unitsofmeasure.org"/>
        </high>
    </referenceRange>
    
  </Observation>
  
  </resource>
  <request>
    <method value="PUT"/>
    <url value="Observation/ID1525-lab"/>
  </request>
</entry>
<entry>
  <resource>
    
    
  <Observation>
  <id value="ID1526-lab"/>
    <text>
      <status value="generated"/>
      <div xmlns="http://www.w3.org/1999/xhtml">2004-01-03: Hgb Bld-mCnc = 14.6 g/dL</div>
    </text>
    <code>
      <coding>
        <system value="http://loinc.org"/>
        <code value="718-7"/>
        <display value="Hgb Bld-mCnc"/>
      </coding>
    </code>
    <valueQuantity>
      <value value="14.6"/>
      <unit value="g/dL"/>
      <system value="http://unitsofmeasure.org" />
      <code value=""/>
    </valueQuantity>
    
    <effectiveDateTime value="2004-01-03"/>
    <status value="final"/>
    <reliability value="ok"/>
    <subject>
      <reference value="Patient/ID1768562"/>
    </subject>
    <referenceRange>
      <meaning>
        <coding>
         <system value="http://hl7.org/fhir/referencerange-meaning"/>
         <code value="normal"/>
         <display value="Normal Range"/>
       </coding>
      </meaning>
        <low>
          <value value="13.5"/>
          <unit value="g/dL"/>
          <code value="g/dL"/>
          <system value="http://unitsofmeasure.org"/>
        </low>
        <high>
          <value value="18.0"/>
          <unit value="g/dL"/>
          <code value="g/dL"/>
          <system value="http://unitsofmeasure.org"/>
        </high>
    </referenceRange>
    
  </Observation>
  
  </resource>
  <request>
    <method value="PUT"/>
    <url value="Observation/ID1526-lab"/>
  </request>
</entry>
<entry>
  <resource>
    
    
  <Observation>
  <id value="ID1527-lab"/>
    <text>
      <status value="generated"/>
      <div xmlns="http://www.w3.org/1999/xhtml">2004-01-03: WBC # Bld = 8.5 10*3/uL</div>
    </text>
    <code>
      <coding>
        <system value="http://loinc.org"/>
        <code value="26464-8"/>
        <display value="WBC # Bld"/>
      </coding>
    </code>
    <valueQuantity>
      <value value="8.5"/>
      <unit value="10*3/uL"/>
      <system value="http://unitsofmeasure.org" />
      <code value=""/>
    </valueQuantity>
    
    <effectiveDateTime value="2004-01-03"/>
    <status value="final"/>
    <reliability value="ok"/>
    <subject>
      <reference value="Patient/ID1768562"/>
    </subject>
    <referenceRange>
      <meaning>
        <coding>
         <system value="http://hl7.org/fhir/referencerange-meaning"/>
         <code value="normal"/>
         <display value="Normal Range"/>
       </coding>
      </meaning>
        <low>
          <value value="4.0"/>
          <unit value="10*3/uL"/>
          <code value="10*3/uL"/>
          <system value="http://unitsofmeasure.org"/>
        </low>
        <high>
          <value value="10.5"/>
          <unit value="10*3/uL"/>
          <code value="10*3/uL"/>
          <system value="http://unitsofmeasure.org"/>
        </high>
    </referenceRange>
    
  </Observation>
  
  </resource>
  <request>
    <method value="PUT"/>
    <url value="Observation/ID1527-lab"/>
  </request>
</entry>
<entry>
  <resource>
    
    
  <Observation>
  <id value="ID1528-lab"/>
    <text>
      <status value="generated"/>
      <div xmlns="http://www.w3.org/1999/xhtml">2004-01-03: Creat SerPl-mCnc = 1.2 mg/dL</div>
    </text>
    <code>
      <coding>
        <system value="http://loinc.org"/>
        <code value="2160-0"/>
        <display value="Creat SerPl-mCnc"/>
      </coding>
    </code>
    <valueQuantity>
      <value value="1.2"/>
      <unit value="mg/dL"/>
      <system value="http://unitsofmeasure.org" />
      <code value=""/>
    </valueQuantity>
    
    <effectiveDateTime value="2004-01-03"/>
    <status value="final"/>
    <reliability value="ok"/>
    <subject>
      <reference value="Patient/ID1768562"/>
    </subject>
    <referenceRange>
      <meaning>
        <coding>
         <system value="http://hl7.org/fhir/referencerange-meaning"/>
         <code value="normal"/>
         <display value="Normal Range"/>
       </coding>
      </meaning>
        <low>
          <value value="0.8"/>
          <unit value="mg/dL"/>
          <code value="mg/dL"/>
          <system value="http://unitsofmeasure.org"/>
        </low>
        <high>
          <value value="1.5"/>
          <unit value="mg/dL"/>
          <code value="mg/dL"/>
          <system value="http://unitsofmeasure.org"/>
        </high>
    </referenceRange>
    
  </Observation>
  
  </resource>
  <request>
    <method value="PUT"/>
    <url value="Observation/ID1528-lab"/>
  </request>
</entry>
<entry>
  <resource>
    
    
  <Observation>
  <id value="ID1529-lab"/>
    <text>
      <status value="generated"/>
      <div xmlns="http://www.w3.org/1999/xhtml">2004-01-03: ALT SerPl-cCnc = 26 U/L</div>
    </text>
    <code>
      <coding>
        <system value="http://loinc.org"/>
        <code value="1742-6"/>
        <display value="ALT SerPl-cCnc"/>
      </coding>
    </code>
    <valueQuantity>
      <value value="26.0"/>
      <unit value="U/L"/>
      <system value="http://unitsofmeasure.org" />
      <code value=""/>
    </valueQuantity>
    
    <effectiveDateTime value="2004-01-03"/>
    <status value="final"/>
    <reliability value="ok"/>
    <subject>
      <reference value="Patient/ID1768562"/>
    </subject>
    <referenceRange>
      <meaning>
        <coding>
         <system value="http://hl7.org/fhir/referencerange-meaning"/>
         <code value="normal"/>
         <display value="Normal Range"/>
       </coding>
      </meaning>
        <low>
          <value value="21.0"/>
          <unit value="U/L"/>
          <code value="U/L"/>
          <system value="http://unitsofmeasure.org"/>
        </low>
        <high>
          <value value="72.0"/>
          <unit value="U/L"/>
          <code value="U/L"/>
          <system value="http://unitsofmeasure.org"/>
        </high>
    </referenceRange>
    
  </Observation>
  
  </resource>
  <request>
    <method value="PUT"/>
    <url value="Observation/ID1529-lab"/>
  </request>
</entry>
<entry>
  <resource>
    
    
  <Observation>
  <id value="ID1530-lab"/>
    <text>
      <status value="generated"/>
      <div xmlns="http://www.w3.org/1999/xhtml">2004-01-03: PMV Bld = 7.3 fL</div>
    </text>
    <code>
      <coding>
        <system value="http://loinc.org"/>
        <code value="28542-9"/>
        <display value="PMV Bld"/>
      </coding>
    </code>
    <valueQuantity>
      <value value="7.3"/>
      <unit value="fL"/>
      <system value="http://unitsofmeasure.org" />
      <code value=""/>
    </valueQuantity>
    
    <effectiveDateTime value="2004-01-03"/>
    <status value="final"/>
    <reliability value="ok"/>
    <subject>
      <reference value="Patient/ID1768562"/>
    </subject>
    <referenceRange>
      <meaning>
        <coding>
         <system value="http://hl7.org/fhir/referencerange-meaning"/>
         <code value="normal"/>
         <display value="Normal Range"/>
       </coding>
      </meaning>
        <low>
          <value value="6.0"/>
          <unit value="fL"/>
          <code value="fL"/>
          <system value="http://unitsofmeasure.org"/>
        </low>
        <high>
          <value value="9.5"/>
          <unit value="fL"/>
          <code value="fL"/>
          <system value="http://unitsofmeasure.org"/>
        </high>
    </referenceRange>
    
  </Observation>
  
  </resource>
  <request>
    <method value="PUT"/>
    <url value="Observation/ID1530-lab"/>
  </request>
</entry>
<entry>
  <resource>
    
    
  <Observation>
  <id value="ID1531-lab"/>
    <text>
      <status value="generated"/>
      <div xmlns="http://www.w3.org/1999/xhtml">2004-01-03: Potassium SerPl-sCnc = 5 mmol/L</div>
    </text>
    <code>
      <coding>
        <system value="http://loinc.org"/>
        <code value="2823-3"/>
        <display value="Potassium SerPl-sCnc"/>
      </coding>
    </code>
    <valueQuantity>
      <value value="5.0"/>
      <unit value="mmol/L"/>
      <system value="http://unitsofmeasure.org" />
      <code value=""/>
    </valueQuantity>
    
    <effectiveDateTime value="2004-01-03"/>
    <status value="final"/>
    <reliability value="ok"/>
    <subject>
      <reference value="Patient/ID1768562"/>
    </subject>
    <referenceRange>
      <meaning>
        <coding>
         <system value="http://hl7.org/fhir/referencerange-meaning"/>
         <code value="normal"/>
         <display value="Normal Range"/>
       </coding>
      </meaning>
        <low>
          <value value="3.6"/>
          <unit value="mmol/L"/>
          <code value="mmol/L"/>
          <system value="http://unitsofmeasure.org"/>
        </low>
        <high>
          <value value="5.5"/>
          <unit value="mmol/L"/>
          <code value="mmol/L"/>
          <system value="http://unitsofmeasure.org"/>
        </high>
    </referenceRange>
    
  </Observation>
  
  </resource>
  <request>
    <method value="PUT"/>
    <url value="Observation/ID1531-lab"/>
  </request>
</entry>
<entry>
  <resource>
    
    
  <Observation>
  <id value="ID1532-lab"/>
    <text>
      <status value="generated"/>
      <div xmlns="http://www.w3.org/1999/xhtml">2004-01-03: RDW RBC-Rto = 12.5 %</div>
    </text>
    <code>
      <coding>
        <system value="http://loinc.org"/>
        <code value="30385-9"/>
        <display value="RDW RBC-Rto"/>
      </coding>
    </code>
    <valueQuantity>
      <value value="12.5"/>
      <unit value="%"/>
      <system value="http://unitsofmeasure.org" />
      <code value=""/>
    </valueQuantity>
    
    <effectiveDateTime value="2004-01-03"/>
    <status value="final"/>
    <reliability value="ok"/>
    <subject>
      <reference value="Patient/ID1768562"/>
    </subject>
    <referenceRange>
      <meaning>
        <coding>
         <system value="http://hl7.org/fhir/referencerange-meaning"/>
         <code value="normal"/>
         <display value="Normal Range"/>
       </coding>
      </meaning>
        <low>
          <value value="11.5"/>
          <unit value="%"/>
          <code value="%"/>
          <system value="http://unitsofmeasure.org"/>
        </low>
        <high>
          <value value="14.0"/>
          <unit value="%"/>
          <code value="%"/>
          <system value="http://unitsofmeasure.org"/>
        </high>
    </referenceRange>
    
  </Observation>
  
  </resource>
  <request>
    <method value="PUT"/>
    <url value="Observation/ID1532-lab"/>
  </request>
</entry>
<entry>
  <resource>
    
    
  <Observation>
  <id value="ID1533-lab"/>
    <text>
      <status value="generated"/>
      <div xmlns="http://www.w3.org/1999/xhtml">2004-01-03: Chloride SerPl-sCnc = 101 mmol/L</div>
    </text>
    <code>
      <coding>
        <system value="http://loinc.org"/>
        <code value="2075-0"/>
        <display value="Chloride SerPl-sCnc"/>
      </coding>
    </code>
    <valueQuantity>
      <value value="101.0"/>
      <unit value="mmol/L"/>
      <system value="http://unitsofmeasure.org" />
      <code value=""/>
    </valueQuantity>
    
    <effectiveDateTime value="2004-01-03"/>
    <status value="final"/>
    <reliability value="ok"/>
    <subject>
      <reference value="Patient/ID1768562"/>
    </subject>
    <referenceRange>
      <meaning>
        <coding>
         <system value="http://hl7.org/fhir/referencerange-meaning"/>
         <code value="normal"/>
         <display value="Normal Range"/>
       </coding>
      </meaning>
        <low>
          <value value="98.0"/>
          <unit value="mmol/L"/>
          <code value="mmol/L"/>
          <system value="http://unitsofmeasure.org"/>
        </low>
        <high>
          <value value="107.0"/>
          <unit value="mmol/L"/>
          <code value="mmol/L"/>
          <system value="http://unitsofmeasure.org"/>
        </high>
    </referenceRange>
    
  </Observation>
  
  </resource>
  <request>
    <method value="PUT"/>
    <url value="Observation/ID1533-lab"/>
  </request>
</entry>
<entry>
  <resource>
    
    
  <Observation>
  <id value="ID1534-lab"/>
    <text>
      <status value="generated"/>
      <div xmlns="http://www.w3.org/1999/xhtml">2004-01-06: Sodium SerPl-sCnc = 137 mmol/L</div>
    </text>
    <code>
      <coding>
        <system value="http://loinc.org"/>
        <code value="2951-2"/>
        <display value="Sodium SerPl-sCnc"/>
      </coding>
    </code>
    <valueQuantity>
      <value value="137.0"/>
      <unit value="mmol/L"/>
      <system value="http://unitsofmeasure.org" />
      <code value=""/>
    </valueQuantity>
    
    <effectiveDateTime value="2004-01-06"/>
    <status value="final"/>
    <reliability value="ok"/>
    <subject>
      <reference value="Patient/ID1768562"/>
    </subject>
    <referenceRange>
      <meaning>
        <coding>
         <system value="http://hl7.org/fhir/referencerange-meaning"/>
         <code value="normal"/>
         <display value="Normal Range"/>
       </coding>
      </meaning>
        <low>
          <value value="137.0"/>
          <unit value="mmol/L"/>
          <code value="mmol/L"/>
          <system value="http://unitsofmeasure.org"/>
        </low>
        <high>
          <value value="145.0"/>
          <unit value="mmol/L"/>
          <code value="mmol/L"/>
          <system value="http://unitsofmeasure.org"/>
        </high>
    </referenceRange>
    
  </Observation>
  
  </resource>
  <request>
    <method value="PUT"/>
    <url value="Observation/ID1534-lab"/>
  </request>
</entry>
<entry>
  <resource>
    
    
  <Observation>
  <id value="ID1535-lab"/>
    <text>
      <status value="generated"/>
      <div xmlns="http://www.w3.org/1999/xhtml">2004-01-06: Chloride SerPl-sCnc = 99 mmol/L</div>
    </text>
    <code>
      <coding>
        <system value="http://loinc.org"/>
        <code value="2075-0"/>
        <display value="Chloride SerPl-sCnc"/>
      </coding>
    </code>
    <valueQuantity>
      <value value="99.0"/>
      <unit value="mmol/L"/>
      <system value="http://unitsofmeasure.org" />
      <code value=""/>
    </valueQuantity>
    
    <effectiveDateTime value="2004-01-06"/>
    <status value="final"/>
    <reliability value="ok"/>
    <subject>
      <reference value="Patient/ID1768562"/>
    </subject>
    <referenceRange>
      <meaning>
        <coding>
         <system value="http://hl7.org/fhir/referencerange-meaning"/>
         <code value="normal"/>
         <display value="Normal Range"/>
       </coding>
      </meaning>
        <low>
          <value value="98.0"/>
          <unit value="mmol/L"/>
          <code value="mmol/L"/>
          <system value="http://unitsofmeasure.org"/>
        </low>
        <high>
          <value value="107.0"/>
          <unit value="mmol/L"/>
          <code value="mmol/L"/>
          <system value="http://unitsofmeasure.org"/>
        </high>
    </referenceRange>
    
  </Observation>
  
  </resource>
  <request>
    <method value="PUT"/>
    <url value="Observation/ID1535-lab"/>
  </request>
</entry>
<entry>
  <resource>
    
    
  <Observation>
  <id value="ID1536-lab"/>
    <text>
      <status value="generated"/>
      <div xmlns="http://www.w3.org/1999/xhtml">2004-01-06: Potassium SerPl-sCnc = 4.5 mmol/L</div>
    </text>
    <code>
      <coding>
        <system value="http://loinc.org"/>
        <code value="2823-3"/>
        <display value="Potassium SerPl-sCnc"/>
      </coding>
    </code>
    <valueQuantity>
      <value value="4.5"/>
      <unit value="mmol/L"/>
      <system value="http://unitsofmeasure.org" />
      <code value=""/>
    </valueQuantity>
    
    <effectiveDateTime value="2004-01-06"/>
    <status value="final"/>
    <reliability value="ok"/>
    <subject>
      <reference value="Patient/ID1768562"/>
    </subject>
    <referenceRange>
      <meaning>
        <coding>
         <system value="http://hl7.org/fhir/referencerange-meaning"/>
         <code value="normal"/>
         <display value="Normal Range"/>
       </coding>
      </meaning>
        <low>
          <value value="3.6"/>
          <unit value="mmol/L"/>
          <code value="mmol/L"/>
          <system value="http://unitsofmeasure.org"/>
        </low>
        <high>
          <value value="5.5"/>
          <unit value="mmol/L"/>
          <code value="mmol/L"/>
          <system value="http://unitsofmeasure.org"/>
        </high>
    </referenceRange>
    
  </Observation>
  
  </resource>
  <request>
    <method value="PUT"/>
    <url value="Observation/ID1536-lab"/>
  </request>
</entry>
<entry>
  <resource>
    
    
  <Observation>
  <id value="ID1537-lab"/>
    <text>
      <status value="generated"/>
      <div xmlns="http://www.w3.org/1999/xhtml">2004-01-06: Creat SerPl-mCnc = 1.2 mg/dL</div>
    </text>
    <code>
      <coding>
        <system value="http://loinc.org"/>
        <code value="2160-0"/>
        <display value="Creat SerPl-mCnc"/>
      </coding>
    </code>
    <valueQuantity>
      <value value="1.2"/>
      <unit value="mg/dL"/>
      <system value="http://unitsofmeasure.org" />
      <code value=""/>
    </valueQuantity>
    
    <effectiveDateTime value="2004-01-06"/>
    <status value="final"/>
    <reliability value="ok"/>
    <subject>
      <reference value="Patient/ID1768562"/>
    </subject>
    <referenceRange>
      <meaning>
        <coding>
         <system value="http://hl7.org/fhir/referencerange-meaning"/>
         <code value="normal"/>
         <display value="Normal Range"/>
       </coding>
      </meaning>
        <low>
          <value value="0.8"/>
          <unit value="mg/dL"/>
          <code value="mg/dL"/>
          <system value="http://unitsofmeasure.org"/>
        </low>
        <high>
          <value value="1.5"/>
          <unit value="mg/dL"/>
          <code value="mg/dL"/>
          <system value="http://unitsofmeasure.org"/>
        </high>
    </referenceRange>
    
  </Observation>
  
  </resource>
  <request>
    <method value="PUT"/>
    <url value="Observation/ID1537-lab"/>
  </request>
</entry>
<entry>
  <resource>
    
    
  <Observation>
  <id value="ID1538-lab"/>
    <text>
      <status value="generated"/>
      <div xmlns="http://www.w3.org/1999/xhtml">2004-01-06: BUN SerPl-mCnc = 23 mg/dL</div>
    </text>
    <code>
      <coding>
        <system value="http://loinc.org"/>
        <code value="3094-0"/>
        <display value="BUN SerPl-mCnc"/>
      </coding>
    </code>
    <valueQuantity>
      <value value="23.0"/>
      <unit value="mg/dL"/>
      <system value="http://unitsofmeasure.org" />
      <code value=""/>
    </valueQuantity>
    
    <effectiveDateTime value="2004-01-06"/>
    <status value="final"/>
    <reliability value="ok"/>
    <subject>
      <reference value="Patient/ID1768562"/>
    </subject>
    <referenceRange>
      <meaning>
        <coding>
         <system value="http://hl7.org/fhir/referencerange-meaning"/>
         <code value="normal"/>
         <display value="Normal Range"/>
       </coding>
      </meaning>
        <low>
          <value value="9.0"/>
          <unit value="mg/dL"/>
          <code value="mg/dL"/>
          <system value="http://unitsofmeasure.org"/>
        </low>
        <high>
          <value value="20.0"/>
          <unit value="mg/dL"/>
          <code value="mg/dL"/>
          <system value="http://unitsofmeasure.org"/>
        </high>
    </referenceRange>
    
  </Observation>
  
  </resource>
  <request>
    <method value="PUT"/>
    <url value="Observation/ID1538-lab"/>
  </request>
</entry>
<entry>
  <resource>
    
    
  <Observation>
  <id value="ID1539-lab"/>
    <text>
      <status value="generated"/>
      <div xmlns="http://www.w3.org/1999/xhtml">2004-01-06: Glucose SerPl-mCnc = 90 mg/dL</div>
    </text>
    <code>
      <coding>
        <system value="http://loinc.org"/>
        <code value="2345-7"/>
        <display value="Glucose SerPl-mCnc"/>
      </coding>
    </code>
    <valueQuantity>
      <value value="90.0"/>
      <unit value="mg/dL"/>
      <system value="http://unitsofmeasure.org" />
      <code value=""/>
    </valueQuantity>
    
    <effectiveDateTime value="2004-01-06"/>
    <status value="final"/>
    <reliability value="ok"/>
    <subject>
      <reference value="Patient/ID1768562"/>
    </subject>
    <referenceRange>
      <meaning>
        <coding>
         <system value="http://hl7.org/fhir/referencerange-meaning"/>
         <code value="normal"/>
         <display value="Normal Range"/>
       </coding>
      </meaning>
        <low>
          <value value="70.0"/>
          <unit value="mg/dL"/>
          <code value="mg/dL"/>
          <system value="http://unitsofmeasure.org"/>
        </low>
        <high>
          <value value="110.0"/>
          <unit value="mg/dL"/>
          <code value="mg/dL"/>
          <system value="http://unitsofmeasure.org"/>
        </high>
    </referenceRange>
    
  </Observation>
  
  </resource>
  <request>
    <method value="PUT"/>
    <url value="Observation/ID1539-lab"/>
  </request>
</entry>
<entry>
  <resource>
    
    
  <Observation>
  <id value="ID1540-lab"/>
    <text>
      <status value="generated"/>
      <div xmlns="http://www.w3.org/1999/xhtml">2004-01-06: Calcium SerPl-mCnc = 8.7 mg/dL</div>
    </text>
    <code>
      <coding>
        <system value="http://loinc.org"/>
        <code value="17861-6"/>
        <display value="Calcium SerPl-mCnc"/>
      </coding>
    </code>
    <valueQuantity>
      <value value="8.7"/>
      <unit value="mg/dL"/>
      <system value="http://unitsofmeasure.org" />
      <code value=""/>
    </valueQuantity>
    
    <effectiveDateTime value="2004-01-06"/>
    <status value="final"/>
    <reliability value="ok"/>
    <subject>
      <reference value="Patient/ID1768562"/>
    </subject>
    <referenceRange>
      <meaning>
        <coding>
         <system value="http://hl7.org/fhir/referencerange-meaning"/>
         <code value="normal"/>
         <display value="Normal Range"/>
       </coding>
      </meaning>
        <low>
          <value value="8.4"/>
          <unit value="mg/dL"/>
          <code value="mg/dL"/>
          <system value="http://unitsofmeasure.org"/>
        </low>
        <high>
          <value value="10.2"/>
          <unit value="mg/dL"/>
          <code value="mg/dL"/>
          <system value="http://unitsofmeasure.org"/>
        </high>
    </referenceRange>
    
  </Observation>
  
  </resource>
  <request>
    <method value="PUT"/>
    <url value="Observation/ID1540-lab"/>
  </request>
</entry>
<entry>
  <resource>
    
    
  <Observation>
  <id value="ID1541-lab"/>
    <text>
      <status value="generated"/>
      <div xmlns="http://www.w3.org/1999/xhtml">2004-01-03: CRP SerPl HS-mCnc = 2.4 mg/L</div>
    </text>
    <code>
      <coding>
        <system value="http://loinc.org"/>
        <code value="30522-7"/>
        <display value="CRP SerPl HS-mCnc"/>
      </coding>
    </code>
    <valueQuantity>
      <value value="2.4"/>
      <unit value="mg/L"/>
      <system value="http://unitsofmeasure.org" />
      <code value=""/>
    </valueQuantity>
    
    <effectiveDateTime value="2004-01-03"/>
    <status value="final"/>
    <reliability value="ok"/>
    <subject>
      <reference value="Patient/ID1768562"/>
    </subject>
    <referenceRange>
      <meaning>
        <coding>
         <system value="http://hl7.org/fhir/referencerange-meaning"/>
         <code value="normal"/>
         <display value="Normal Range"/>
       </coding>
      </meaning>
        <low>
          <value value="0.0"/>
          <unit value="mg/L"/>
          <code value="mg/L"/>
          <system value="http://unitsofmeasure.org"/>
        </low>
        <high>
          <value value="3.0"/>
          <unit value="mg/L"/>
          <code value="mg/L"/>
          <system value="http://unitsofmeasure.org"/>
        </high>
    </referenceRange>
    
  </Observation>
  
  </resource>
  <request>
    <method value="PUT"/>
    <url value="Observation/ID1541-lab"/>
  </request>
</entry>
<entry>
  <resource>
    
    
<MedicationOrder>
  <id value="ID200-mp"/>
  <text>
    <status value="generated"/>
    <div xmlns="http://www.w3.org/1999/xhtml">
      carvedilol 25 MG Oral Tablet (rxnorm: 200033)
    </div>
  </text>

  <contained>
    <Medication>
      <id value="med"/>
      <name value="carvedilol 25 MG Oral Tablet"/>
      <code>
	<coding>
	<system value="http://www.nlm.nih.gov/research/umls/rxnorm"/>
	  <code value="200033"/>
	  <display value="carvedilol 25 MG Oral Tablet"/>
	</coding>
      </code>
    </Medication>
  </contained>

  <status value="active" />
  <patient>
    <reference value="Patient/ID1768562"/>
  </patient>

  <medication>
    <reference value="#med"/>
  </medication>

  <dosageInstruction>
    <scheduledTiming>
      <repeat>
        <bounds>
          <start value="2008-07-30"/>
        </bounds>
        <frequency value="1"/>
        <duration value="1"/>
        <durationUnits value="d"/>
      </repeat>
      
    </scheduledTiming>
    <doseQuantity>
      <value value="1"/>
      <unit value="{tablet}"/>
      <system value="http://unitsofmeasure.org"/>
      <code value="{tablet}"/>
    </doseQuantity>
    
    <text value="1 daily"/>
  </dosageInstruction>
  <dispense>
     <numberOfRepeatsAllowed value="1"/>
     
     <quantity>
        <value value="60"/>
        <unit value="{tablet}"/>
        <system value="http://unitsofmeasure.org"/>
        <code value="{tablet}"/>
     </quantity>
     
     <expectedSupplyDuration>
        <value value="30"/>
        <unit value="days"/>
        <system value="http://unitsofmeasure.org"/>
        <code value="d"/>
     </expectedSupplyDuration>
     
  </dispense>
  
</MedicationOrder>

  </resource>
  <request>
    <method value="PUT"/>
    <url value="MedicationOrder/ID200-mp"/>
  </request>
</entry>
<entry>
  <resource>
    
    
<MedicationDispense>
  <id value="ID259-md"/>
  <!--  insert contents here  -->
   <text>
    <status value="generated"/>
    <div xmlns="http://www.w3.org/1999/xhtml">
      Dispensed 60 tablets = 30 day supply of carvedilol 25 MG Oral Tablet
    </div>
  </text>  

  <contained>
    <Medication>
      <id value="med"/>
      <name value="carvedilol 25 MG Oral Tablet"/>
      <code>
	<coding>
	<system value="http://www.nlm.nih.gov/research/umls/rxnorm"/>
	  <code value="200033"/>
	  <display value="carvedilol 25 MG Oral Tablet"/>
	</coding>
      </code>
    </Medication>
  </contained>
  
  <status value="completed"/>

  <patient>
    <reference value="Patient/ID1768562"/>
  </patient>

  <authorizingPrescription>
    <reference value="MedicationOrder/ID200-mp"/>
  </authorizingPrescription>

  <quantity>
      <value value="60"/>
      <unit value="tablets"/>
      <system value="http://unitsofmeasure.org"/>
      <code value="{tablets}"/>
  </quantity>

  <daysSupply>
      <value value="30" />
      <unit value="days" />
      <system value="http://unitsofmeasure.org" />
      <code value="d" />
  </daysSupply>

  <medication>
      <reference value="#med"/>
  </medication>

  <whenHandedOver value="2009-01-10"/>

</MedicationDispense>

  </resource>
  <request>
    <method value="PUT"/>
    <url value="MedicationDispense/ID259-md"/>
  </request>
</entry>
<entry>
  <resource>
    
    
<MedicationDispense>
  <id value="ID256-md"/>
  <!--  insert contents here  -->
   <text>
    <status value="generated"/>
    <div xmlns="http://www.w3.org/1999/xhtml">
      Dispensed 60 tablets = 30 day supply of carvedilol 25 MG Oral Tablet
    </div>
  </text>  

  <contained>
    <Medication>
      <id value="med"/>
      <name value="carvedilol 25 MG Oral Tablet"/>
      <code>
	<coding>
	<system value="http://www.nlm.nih.gov/research/umls/rxnorm"/>
	  <code value="200033"/>
	  <display value="carvedilol 25 MG Oral Tablet"/>
	</coding>
      </code>
    </Medication>
  </contained>
  
  <status value="completed"/>

  <patient>
    <reference value="Patient/ID1768562"/>
  </patient>

  <authorizingPrescription>
    <reference value="MedicationOrder/ID200-mp"/>
  </authorizingPrescription>

  <quantity>
      <value value="60"/>
      <unit value="tablets"/>
      <system value="http://unitsofmeasure.org"/>
      <code value="{tablets}"/>
  </quantity>

  <daysSupply>
      <value value="30" />
      <unit value="days" />
      <system value="http://unitsofmeasure.org" />
      <code value="d" />
  </daysSupply>

  <medication>
      <reference value="#med"/>
  </medication>

  <whenHandedOver value="2008-10-05"/>

</MedicationDispense>

  </resource>
  <request>
    <method value="PUT"/>
    <url value="MedicationDispense/ID256-md"/>
  </request>
</entry>
<entry>
  <resource>
    
    
<MedicationDispense>
  <id value="ID261-md"/>
  <!--  insert contents here  -->
   <text>
    <status value="generated"/>
    <div xmlns="http://www.w3.org/1999/xhtml">
      Dispensed 60 tablets = 30 day supply of carvedilol 25 MG Oral Tablet
    </div>
  </text>  

  <contained>
    <Medication>
      <id value="med"/>
      <name value="carvedilol 25 MG Oral Tablet"/>
      <code>
	<coding>
	<system value="http://www.nlm.nih.gov/research/umls/rxnorm"/>
	  <code value="200033"/>
	  <display value="carvedilol 25 MG Oral Tablet"/>
	</coding>
      </code>
    </Medication>
  </contained>
  
  <status value="completed"/>

  <patient>
    <reference value="Patient/ID1768562"/>
  </patient>

  <authorizingPrescription>
    <reference value="MedicationOrder/ID200-mp"/>
  </authorizingPrescription>

  <quantity>
      <value value="60"/>
      <unit value="tablets"/>
      <system value="http://unitsofmeasure.org"/>
      <code value="{tablets}"/>
  </quantity>

  <daysSupply>
      <value value="30" />
      <unit value="days" />
      <system value="http://unitsofmeasure.org" />
      <code value="d" />
  </daysSupply>

  <medication>
      <reference value="#med"/>
  </medication>

  <whenHandedOver value="2009-03-12"/>

</MedicationDispense>

  </resource>
  <request>
    <method value="PUT"/>
    <url value="MedicationDispense/ID261-md"/>
  </request>
</entry>
<entry>
  <resource>
    
    
<MedicationDispense>
  <id value="ID262-md"/>
  <!--  insert contents here  -->
   <text>
    <status value="generated"/>
    <div xmlns="http://www.w3.org/1999/xhtml">
      Dispensed 60 tablets = 30 day supply of carvedilol 25 MG Oral Tablet
    </div>
  </text>  

  <contained>
    <Medication>
      <id value="med"/>
      <name value="carvedilol 25 MG Oral Tablet"/>
      <code>
	<coding>
	<system value="http://www.nlm.nih.gov/research/umls/rxnorm"/>
	  <code value="200033"/>
	  <display value="carvedilol 25 MG Oral Tablet"/>
	</coding>
      </code>
    </Medication>
  </contained>
  
  <status value="completed"/>

  <patient>
    <reference value="Patient/ID1768562"/>
  </patient>

  <authorizingPrescription>
    <reference value="MedicationOrder/ID200-mp"/>
  </authorizingPrescription>

  <quantity>
      <value value="60"/>
      <unit value="tablets"/>
      <system value="http://unitsofmeasure.org"/>
      <code value="{tablets}"/>
  </quantity>

  <daysSupply>
      <value value="30" />
      <unit value="days" />
      <system value="http://unitsofmeasure.org" />
      <code value="d" />
  </daysSupply>

  <medication>
      <reference value="#med"/>
  </medication>

  <whenHandedOver value="2009-04-11"/>

</MedicationDispense>

  </resource>
  <request>
    <method value="PUT"/>
    <url value="MedicationDispense/ID262-md"/>
  </request>
</entry>
<entry>
  <resource>
    
    
<MedicationDispense>
  <id value="ID258-md"/>
  <!--  insert contents here  -->
   <text>
    <status value="generated"/>
    <div xmlns="http://www.w3.org/1999/xhtml">
      Dispensed 60 tablets = 30 day supply of carvedilol 25 MG Oral Tablet
    </div>
  </text>  

  <contained>
    <Medication>
      <id value="med"/>
      <name value="carvedilol 25 MG Oral Tablet"/>
      <code>
	<coding>
	<system value="http://www.nlm.nih.gov/research/umls/rxnorm"/>
	  <code value="200033"/>
	  <display value="carvedilol 25 MG Oral Tablet"/>
	</coding>
      </code>
    </Medication>
  </contained>
  
  <status value="completed"/>

  <patient>
    <reference value="Patient/ID1768562"/>
  </patient>

  <authorizingPrescription>
    <reference value="MedicationOrder/ID200-mp"/>
  </authorizingPrescription>

  <quantity>
      <value value="60"/>
      <unit value="tablets"/>
      <system value="http://unitsofmeasure.org"/>
      <code value="{tablets}"/>
  </quantity>

  <daysSupply>
      <value value="30" />
      <unit value="days" />
      <system value="http://unitsofmeasure.org" />
      <code value="d" />
  </daysSupply>

  <medication>
      <reference value="#med"/>
  </medication>

  <whenHandedOver value="2008-12-06"/>

</MedicationDispense>

  </resource>
  <request>
    <method value="PUT"/>
    <url value="MedicationDispense/ID258-md"/>
  </request>
</entry>
<entry>
  <resource>
    
    
<MedicationDispense>
  <id value="ID260-md"/>
  <!--  insert contents here  -->
   <text>
    <status value="generated"/>
    <div xmlns="http://www.w3.org/1999/xhtml">
      Dispensed 60 tablets = 30 day supply of carvedilol 25 MG Oral Tablet
    </div>
  </text>  

  <contained>
    <Medication>
      <id value="med"/>
      <name value="carvedilol 25 MG Oral Tablet"/>
      <code>
	<coding>
	<system value="http://www.nlm.nih.gov/research/umls/rxnorm"/>
	  <code value="200033"/>
	  <display value="carvedilol 25 MG Oral Tablet"/>
	</coding>
      </code>
    </Medication>
  </contained>
  
  <status value="completed"/>

  <patient>
    <reference value="Patient/ID1768562"/>
  </patient>

  <authorizingPrescription>
    <reference value="MedicationOrder/ID200-mp"/>
  </authorizingPrescription>

  <quantity>
      <value value="60"/>
      <unit value="tablets"/>
      <system value="http://unitsofmeasure.org"/>
      <code value="{tablets}"/>
  </quantity>

  <daysSupply>
      <value value="30" />
      <unit value="days" />
      <system value="http://unitsofmeasure.org" />
      <code value="d" />
  </daysSupply>

  <medication>
      <reference value="#med"/>
  </medication>

  <whenHandedOver value="2009-02-09"/>

</MedicationDispense>

  </resource>
  <request>
    <method value="PUT"/>
    <url value="MedicationDispense/ID260-md"/>
  </request>
</entry>
<entry>
  <resource>
    
    
<MedicationDispense>
  <id value="ID264-md"/>
  <!--  insert contents here  -->
   <text>
    <status value="generated"/>
    <div xmlns="http://www.w3.org/1999/xhtml">
      Dispensed 60 tablets = 30 day supply of carvedilol 25 MG Oral Tablet
    </div>
  </text>  

  <contained>
    <Medication>
      <id value="med"/>
      <name value="carvedilol 25 MG Oral Tablet"/>
      <code>
	<coding>
	<system value="http://www.nlm.nih.gov/research/umls/rxnorm"/>
	  <code value="200033"/>
	  <display value="carvedilol 25 MG Oral Tablet"/>
	</coding>
      </code>
    </Medication>
  </contained>
  
  <status value="completed"/>

  <patient>
    <reference value="Patient/ID1768562"/>
  </patient>

  <authorizingPrescription>
    <reference value="MedicationOrder/ID200-mp"/>
  </authorizingPrescription>

  <quantity>
      <value value="60"/>
      <unit value="tablets"/>
      <system value="http://unitsofmeasure.org"/>
      <code value="{tablets}"/>
  </quantity>

  <daysSupply>
      <value value="30" />
      <unit value="days" />
      <system value="http://unitsofmeasure.org" />
      <code value="d" />
  </daysSupply>

  <medication>
      <reference value="#med"/>
  </medication>

  <whenHandedOver value="2009-06-13"/>

</MedicationDispense>

  </resource>
  <request>
    <method value="PUT"/>
    <url value="MedicationDispense/ID264-md"/>
  </request>
</entry>
<entry>
  <resource>
    
    
<MedicationDispense>
  <id value="ID257-md"/>
  <!--  insert contents here  -->
   <text>
    <status value="generated"/>
    <div xmlns="http://www.w3.org/1999/xhtml">
      Dispensed 60 tablets = 30 day supply of carvedilol 25 MG Oral Tablet
    </div>
  </text>  

  <contained>
    <Medication>
      <id value="med"/>
      <name value="carvedilol 25 MG Oral Tablet"/>
      <code>
	<coding>
	<system value="http://www.nlm.nih.gov/research/umls/rxnorm"/>
	  <code value="200033"/>
	  <display value="carvedilol 25 MG Oral Tablet"/>
	</coding>
      </code>
    </Medication>
  </contained>
  
  <status value="completed"/>

  <patient>
    <reference value="Patient/ID1768562"/>
  </patient>

  <authorizingPrescription>
    <reference value="MedicationOrder/ID200-mp"/>
  </authorizingPrescription>

  <quantity>
      <value value="60"/>
      <unit value="tablets"/>
      <system value="http://unitsofmeasure.org"/>
      <code value="{tablets}"/>
  </quantity>

  <daysSupply>
      <value value="30" />
      <unit value="days" />
      <system value="http://unitsofmeasure.org" />
      <code value="d" />
  </daysSupply>

  <medication>
      <reference value="#med"/>
  </medication>

  <whenHandedOver value="2008-11-06"/>

</MedicationDispense>

  </resource>
  <request>
    <method value="PUT"/>
    <url value="MedicationDispense/ID257-md"/>
  </request>
</entry>
<entry>
  <resource>
    
    
<MedicationDispense>
  <id value="ID255-md"/>
  <!--  insert contents here  -->
   <text>
    <status value="generated"/>
    <div xmlns="http://www.w3.org/1999/xhtml">
      Dispensed 60 tablets = 30 day supply of carvedilol 25 MG Oral Tablet
    </div>
  </text>  

  <contained>
    <Medication>
      <id value="med"/>
      <name value="carvedilol 25 MG Oral Tablet"/>
      <code>
	<coding>
	<system value="http://www.nlm.nih.gov/research/umls/rxnorm"/>
	  <code value="200033"/>
	  <display value="carvedilol 25 MG Oral Tablet"/>
	</coding>
      </code>
    </Medication>
  </contained>
  
  <status value="completed"/>

  <patient>
    <reference value="Patient/ID1768562"/>
  </patient>

  <authorizingPrescription>
    <reference value="MedicationOrder/ID200-mp"/>
  </authorizingPrescription>

  <quantity>
      <value value="60"/>
      <unit value="tablets"/>
      <system value="http://unitsofmeasure.org"/>
      <code value="{tablets}"/>
  </quantity>

  <daysSupply>
      <value value="30" />
      <unit value="days" />
      <system value="http://unitsofmeasure.org" />
      <code value="d" />
  </daysSupply>

  <medication>
      <reference value="#med"/>
  </medication>

  <whenHandedOver value="2008-08-31"/>

</MedicationDispense>

  </resource>
  <request>
    <method value="PUT"/>
    <url value="MedicationDispense/ID255-md"/>
  </request>
</entry>
<entry>
  <resource>
    
    
<MedicationDispense>
  <id value="ID263-md"/>
  <!--  insert contents here  -->
   <text>
    <status value="generated"/>
    <div xmlns="http://www.w3.org/1999/xhtml">
      Dispensed 60 tablets = 30 day supply of carvedilol 25 MG Oral Tablet
    </div>
  </text>  

  <contained>
    <Medication>
      <id value="med"/>
      <name value="carvedilol 25 MG Oral Tablet"/>
      <code>
	<coding>
	<system value="http://www.nlm.nih.gov/research/umls/rxnorm"/>
	  <code value="200033"/>
	  <display value="carvedilol 25 MG Oral Tablet"/>
	</coding>
      </code>
    </Medication>
  </contained>
  
  <status value="completed"/>

  <patient>
    <reference value="Patient/ID1768562"/>
  </patient>

  <authorizingPrescription>
    <reference value="MedicationOrder/ID200-mp"/>
  </authorizingPrescription>

  <quantity>
      <value value="60"/>
      <unit value="tablets"/>
      <system value="http://unitsofmeasure.org"/>
      <code value="{tablets}"/>
  </quantity>

  <daysSupply>
      <value value="30" />
      <unit value="days" />
      <system value="http://unitsofmeasure.org" />
      <code value="d" />
  </daysSupply>

  <medication>
      <reference value="#med"/>
  </medication>

  <whenHandedOver value="2009-05-12"/>

</MedicationDispense>

  </resource>
  <request>
    <method value="PUT"/>
    <url value="MedicationDispense/ID263-md"/>
  </request>
</entry>
<entry>
  <resource>
    
    
<MedicationDispense>
  <id value="ID266-md"/>
  <!--  insert contents here  -->
   <text>
    <status value="generated"/>
    <div xmlns="http://www.w3.org/1999/xhtml">
      Dispensed 60 tablets = 30 day supply of carvedilol 25 MG Oral Tablet
    </div>
  </text>  

  <contained>
    <Medication>
      <id value="med"/>
      <name value="carvedilol 25 MG Oral Tablet"/>
      <code>
	<coding>
	<system value="http://www.nlm.nih.gov/research/umls/rxnorm"/>
	  <code value="200033"/>
	  <display value="carvedilol 25 MG Oral Tablet"/>
	</coding>
      </code>
    </Medication>
  </contained>
  
  <status value="completed"/>

  <patient>
    <reference value="Patient/ID1768562"/>
  </patient>

  <authorizingPrescription>
    <reference value="MedicationOrder/ID200-mp"/>
  </authorizingPrescription>

  <quantity>
      <value value="60"/>
      <unit value="tablets"/>
      <system value="http://unitsofmeasure.org"/>
      <code value="{tablets}"/>
  </quantity>

  <daysSupply>
      <value value="30" />
      <unit value="days" />
      <system value="http://unitsofmeasure.org" />
      <code value="d" />
  </daysSupply>

  <medication>
      <reference value="#med"/>
  </medication>

  <whenHandedOver value="2009-08-12"/>

</MedicationDispense>

  </resource>
  <request>
    <method value="PUT"/>
    <url value="MedicationDispense/ID266-md"/>
  </request>
</entry>
<entry>
  <resource>
    
    
<MedicationDispense>
  <id value="ID254-md"/>
  <!--  insert contents here  -->
   <text>
    <status value="generated"/>
    <div xmlns="http://www.w3.org/1999/xhtml">
      Dispensed 60 tablets = 30 day supply of carvedilol 25 MG Oral Tablet
    </div>
  </text>  

  <contained>
    <Medication>
      <id value="med"/>
      <name value="carvedilol 25 MG Oral Tablet"/>
      <code>
	<coding>
	<system value="http://www.nlm.nih.gov/research/umls/rxnorm"/>
	  <code value="200033"/>
	  <display value="carvedilol 25 MG Oral Tablet"/>
	</coding>
      </code>
    </Medication>
  </contained>
  
  <status value="completed"/>

  <patient>
    <reference value="Patient/ID1768562"/>
  </patient>

  <authorizingPrescription>
    <reference value="MedicationOrder/ID200-mp"/>
  </authorizingPrescription>

  <quantity>
      <value value="60"/>
      <unit value="tablets"/>
      <system value="http://unitsofmeasure.org"/>
      <code value="{tablets}"/>
  </quantity>

  <daysSupply>
      <value value="30" />
      <unit value="days" />
      <system value="http://unitsofmeasure.org" />
      <code value="d" />
  </daysSupply>

  <medication>
      <reference value="#med"/>
  </medication>

  <whenHandedOver value="2008-07-30"/>

</MedicationDispense>

  </resource>
  <request>
    <method value="PUT"/>
    <url value="MedicationDispense/ID254-md"/>
  </request>
</entry>
<entry>
  <resource>
    
    
<MedicationDispense>
  <id value="ID265-md"/>
  <!--  insert contents here  -->
   <text>
    <status value="generated"/>
    <div xmlns="http://www.w3.org/1999/xhtml">
      Dispensed 60 tablets = 30 day supply of carvedilol 25 MG Oral Tablet
    </div>
  </text>  

  <contained>
    <Medication>
      <id value="med"/>
      <name value="carvedilol 25 MG Oral Tablet"/>
      <code>
	<coding>
	<system value="http://www.nlm.nih.gov/research/umls/rxnorm"/>
	  <code value="200033"/>
	  <display value="carvedilol 25 MG Oral Tablet"/>
	</coding>
      </code>
    </Medication>
  </contained>
  
  <status value="completed"/>

  <patient>
    <reference value="Patient/ID1768562"/>
  </patient>

  <authorizingPrescription>
    <reference value="MedicationOrder/ID200-mp"/>
  </authorizingPrescription>

  <quantity>
      <value value="60"/>
      <unit value="tablets"/>
      <system value="http://unitsofmeasure.org"/>
      <code value="{tablets}"/>
  </quantity>

  <daysSupply>
      <value value="30" />
      <unit value="days" />
      <system value="http://unitsofmeasure.org" />
      <code value="d" />
  </daysSupply>

  <medication>
      <reference value="#med"/>
  </medication>

  <whenHandedOver value="2009-07-15"/>

</MedicationDispense>

  </resource>
  <request>
    <method value="PUT"/>
    <url value="MedicationDispense/ID265-md"/>
  </request>
</entry>
<entry>
  <resource>
    
    
<MedicationOrder>
  <id value="ID201-mp"/>
  <text>
    <status value="generated"/>
    <div xmlns="http://www.w3.org/1999/xhtml">
      Digoxin 0.25 MG Oral Tablet [Lanoxin] (rxnorm: 309889)
    </div>
  </text>

  <contained>
    <Medication>
      <id value="med"/>
      <name value="Digoxin 0.25 MG Oral Tablet [Lanoxin]"/>
      <code>
	<coding>
	<system value="http://www.nlm.nih.gov/research/umls/rxnorm"/>
	  <code value="309889"/>
	  <display value="Digoxin 0.25 MG Oral Tablet [Lanoxin]"/>
	</coding>
      </code>
    </Medication>
  </contained>

  <status value="active" />
  <patient>
    <reference value="Patient/ID1768562"/>
  </patient>

  <medication>
    <reference value="#med"/>
  </medication>

  <dosageInstruction>
    <scheduledTiming>
      <repeat>
        <bounds>
          <start value="2008-07-30"/>
        </bounds>
        <frequency value="1"/>
        <duration value="1"/>
        <durationUnits value="d"/>
      </repeat>
      
    </scheduledTiming>
    <doseQuantity>
      <value value="1"/>
      <unit value="{tablet}"/>
      <system value="http://unitsofmeasure.org"/>
      <code value="{tablet}"/>
    </doseQuantity>
    
    <text value="1 daily"/>
  </dosageInstruction>
  <dispense>
     <numberOfRepeatsAllowed value="1"/>
     
     <quantity>
        <value value="30"/>
        <unit value="{tablet}"/>
        <system value="http://unitsofmeasure.org"/>
        <code value="{tablet}"/>
     </quantity>
     
     <expectedSupplyDuration>
        <value value="30"/>
        <unit value="days"/>
        <system value="http://unitsofmeasure.org"/>
        <code value="d"/>
     </expectedSupplyDuration>
     
  </dispense>
  
</MedicationOrder>

  </resource>
  <request>
    <method value="PUT"/>
    <url value="MedicationOrder/ID201-mp"/>
  </request>
</entry>
<entry>
  <resource>
    
    
<MedicationDispense>
  <id value="ID295-md"/>
  <!--  insert contents here  -->
   <text>
    <status value="generated"/>
    <div xmlns="http://www.w3.org/1999/xhtml">
      Dispensed 30 tablets = 30 day supply of Digoxin 0.25 MG Oral Tablet [Lanoxin]
    </div>
  </text>  

  <contained>
    <Medication>
      <id value="med"/>
      <name value="Digoxin 0.25 MG Oral Tablet [Lanoxin]"/>
      <code>
	<coding>
	<system value="http://www.nlm.nih.gov/research/umls/rxnorm"/>
	  <code value="309889"/>
	  <display value="Digoxin 0.25 MG Oral Tablet [Lanoxin]"/>
	</coding>
      </code>
    </Medication>
  </contained>
  
  <status value="completed"/>

  <patient>
    <reference value="Patient/ID1768562"/>
  </patient>

  <authorizingPrescription>
    <reference value="MedicationOrder/ID201-mp"/>
  </authorizingPrescription>

  <quantity>
      <value value="30"/>
      <unit value="tablets"/>
      <system value="http://unitsofmeasure.org"/>
      <code value="{tablets}"/>
  </quantity>

  <daysSupply>
      <value value="30" />
      <unit value="days" />
      <system value="http://unitsofmeasure.org" />
      <code value="d" />
  </daysSupply>

  <medication>
      <reference value="#med"/>
  </medication>

  <whenHandedOver value="2009-02-28"/>

</MedicationDispense>

  </resource>
  <request>
    <method value="PUT"/>
    <url value="MedicationDispense/ID295-md"/>
  </request>
</entry>
<entry>
  <resource>
    
    
<MedicationDispense>
  <id value="ID298-md"/>
  <!--  insert contents here  -->
   <text>
    <status value="generated"/>
    <div xmlns="http://www.w3.org/1999/xhtml">
      Dispensed 30 tablets = 30 day supply of Digoxin 0.25 MG Oral Tablet [Lanoxin]
    </div>
  </text>  

  <contained>
    <Medication>
      <id value="med"/>
      <name value="Digoxin 0.25 MG Oral Tablet [Lanoxin]"/>
      <code>
	<coding>
	<system value="http://www.nlm.nih.gov/research/umls/rxnorm"/>
	  <code value="309889"/>
	  <display value="Digoxin 0.25 MG Oral Tablet [Lanoxin]"/>
	</coding>
      </code>
    </Medication>
  </contained>
  
  <status value="completed"/>

  <patient>
    <reference value="Patient/ID1768562"/>
  </patient>

  <authorizingPrescription>
    <reference value="MedicationOrder/ID201-mp"/>
  </authorizingPrescription>

  <quantity>
      <value value="30"/>
      <unit value="tablets"/>
      <system value="http://unitsofmeasure.org"/>
      <code value="{tablets}"/>
  </quantity>

  <daysSupply>
      <value value="30" />
      <unit value="days" />
      <system value="http://unitsofmeasure.org" />
      <code value="d" />
  </daysSupply>

  <medication>
      <reference value="#med"/>
  </medication>

  <whenHandedOver value="2009-05-27"/>

</MedicationDispense>

  </resource>
  <request>
    <method value="PUT"/>
    <url value="MedicationDispense/ID298-md"/>
  </request>
</entry>
<entry>
  <resource>
    
    
<MedicationDispense>
  <id value="ID290-md"/>
  <!--  insert contents here  -->
   <text>
    <status value="generated"/>
    <div xmlns="http://www.w3.org/1999/xhtml">
      Dispensed 30 tablets = 30 day supply of Digoxin 0.25 MG Oral Tablet [Lanoxin]
    </div>
  </text>  

  <contained>
    <Medication>
      <id value="med"/>
      <name value="Digoxin 0.25 MG Oral Tablet [Lanoxin]"/>
      <code>
	<coding>
	<system value="http://www.nlm.nih.gov/research/umls/rxnorm"/>
	  <code value="309889"/>
	  <display value="Digoxin 0.25 MG Oral Tablet [Lanoxin]"/>
	</coding>
      </code>
    </Medication>
  </contained>
  
  <status value="completed"/>

  <patient>
    <reference value="Patient/ID1768562"/>
  </patient>

  <authorizingPrescription>
    <reference value="MedicationOrder/ID201-mp"/>
  </authorizingPrescription>

  <quantity>
      <value value="30"/>
      <unit value="tablets"/>
      <system value="http://unitsofmeasure.org"/>
      <code value="{tablets}"/>
  </quantity>

  <daysSupply>
      <value value="30" />
      <unit value="days" />
      <system value="http://unitsofmeasure.org" />
      <code value="d" />
  </daysSupply>

  <medication>
      <reference value="#med"/>
  </medication>

  <whenHandedOver value="2008-08-31"/>

</MedicationDispense>

  </resource>
  <request>
    <method value="PUT"/>
    <url value="MedicationDispense/ID290-md"/>
  </request>
</entry>
<entry>
  <resource>
    
    
<MedicationDispense>
  <id value="ID291-md"/>
  <!--  insert contents here  -->
   <text>
    <status value="generated"/>
    <div xmlns="http://www.w3.org/1999/xhtml">
      Dispensed 30 tablets = 30 day supply of Digoxin 0.25 MG Oral Tablet [Lanoxin]
    </div>
  </text>  

  <contained>
    <Medication>
      <id value="med"/>
      <name value="Digoxin 0.25 MG Oral Tablet [Lanoxin]"/>
      <code>
	<coding>
	<system value="http://www.nlm.nih.gov/research/umls/rxnorm"/>
	  <code value="309889"/>
	  <display value="Digoxin 0.25 MG Oral Tablet [Lanoxin]"/>
	</coding>
      </code>
    </Medication>
  </contained>
  
  <status value="completed"/>

  <patient>
    <reference value="Patient/ID1768562"/>
  </patient>

  <authorizingPrescription>
    <reference value="MedicationOrder/ID201-mp"/>
  </authorizingPrescription>

  <quantity>
      <value value="30"/>
      <unit value="tablets"/>
      <system value="http://unitsofmeasure.org"/>
      <code value="{tablets}"/>
  </quantity>

  <daysSupply>
      <value value="30" />
      <unit value="days" />
      <system value="http://unitsofmeasure.org" />
      <code value="d" />
  </daysSupply>

  <medication>
      <reference value="#med"/>
  </medication>

  <whenHandedOver value="2008-09-26"/>

</MedicationDispense>

  </resource>
  <request>
    <method value="PUT"/>
    <url value="MedicationDispense/ID291-md"/>
  </request>
</entry>
<entry>
  <resource>
    
    
<MedicationDispense>
  <id value="ID289-md"/>
  <!--  insert contents here  -->
   <text>
    <status value="generated"/>
    <div xmlns="http://www.w3.org/1999/xhtml">
      Dispensed 30 tablets = 30 day supply of Digoxin 0.25 MG Oral Tablet [Lanoxin]
    </div>
  </text>  

  <contained>
    <Medication>
      <id value="med"/>
      <name value="Digoxin 0.25 MG Oral Tablet [Lanoxin]"/>
      <code>
	<coding>
	<system value="http://www.nlm.nih.gov/research/umls/rxnorm"/>
	  <code value="309889"/>
	  <display value="Digoxin 0.25 MG Oral Tablet [Lanoxin]"/>
	</coding>
      </code>
    </Medication>
  </contained>
  
  <status value="completed"/>

  <patient>
    <reference value="Patient/ID1768562"/>
  </patient>

  <authorizingPrescription>
    <reference value="MedicationOrder/ID201-mp"/>
  </authorizingPrescription>

  <quantity>
      <value value="30"/>
      <unit value="tablets"/>
      <system value="http://unitsofmeasure.org"/>
      <code value="{tablets}"/>
  </quantity>

  <daysSupply>
      <value value="30" />
      <unit value="days" />
      <system value="http://unitsofmeasure.org" />
      <code value="d" />
  </daysSupply>

  <medication>
      <reference value="#med"/>
  </medication>

  <whenHandedOver value="2008-07-30"/>

</MedicationDispense>

  </resource>
  <request>
    <method value="PUT"/>
    <url value="MedicationDispense/ID289-md"/>
  </request>
</entry>
<entry>
  <resource>
    
    
<MedicationDispense>
  <id value="ID294-md"/>
  <!--  insert contents here  -->
   <text>
    <status value="generated"/>
    <div xmlns="http://www.w3.org/1999/xhtml">
      Dispensed 30 tablets = 30 day supply of Digoxin 0.25 MG Oral Tablet [Lanoxin]
    </div>
  </text>  

  <contained>
    <Medication>
      <id value="med"/>
      <name value="Digoxin 0.25 MG Oral Tablet [Lanoxin]"/>
      <code>
	<coding>
	<system value="http://www.nlm.nih.gov/research/umls/rxnorm"/>
	  <code value="309889"/>
	  <display value="Digoxin 0.25 MG Oral Tablet [Lanoxin]"/>
	</coding>
      </code>
    </Medication>
  </contained>
  
  <status value="completed"/>

  <patient>
    <reference value="Patient/ID1768562"/>
  </patient>

  <authorizingPrescription>
    <reference value="MedicationOrder/ID201-mp"/>
  </authorizingPrescription>

  <quantity>
      <value value="30"/>
      <unit value="tablets"/>
      <system value="http://unitsofmeasure.org"/>
      <code value="{tablets}"/>
  </quantity>

  <daysSupply>
      <value value="30" />
      <unit value="days" />
      <system value="http://unitsofmeasure.org" />
      <code value="d" />
  </daysSupply>

  <medication>
      <reference value="#med"/>
  </medication>

  <whenHandedOver value="2009-01-30"/>

</MedicationDispense>

  </resource>
  <request>
    <method value="PUT"/>
    <url value="MedicationDispense/ID294-md"/>
  </request>
</entry>
<entry>
  <resource>
    
    
<MedicationDispense>
  <id value="ID300-md"/>
  <!--  insert contents here  -->
   <text>
    <status value="generated"/>
    <div xmlns="http://www.w3.org/1999/xhtml">
      Dispensed 30 tablets = 30 day supply of Digoxin 0.25 MG Oral Tablet [Lanoxin]
    </div>
  </text>  

  <contained>
    <Medication>
      <id value="med"/>
      <name value="Digoxin 0.25 MG Oral Tablet [Lanoxin]"/>
      <code>
	<coding>
	<system value="http://www.nlm.nih.gov/research/umls/rxnorm"/>
	  <code value="309889"/>
	  <display value="Digoxin 0.25 MG Oral Tablet [Lanoxin]"/>
	</coding>
      </code>
    </Medication>
  </contained>
  
  <status value="completed"/>

  <patient>
    <reference value="Patient/ID1768562"/>
  </patient>

  <authorizingPrescription>
    <reference value="MedicationOrder/ID201-mp"/>
  </authorizingPrescription>

  <quantity>
      <value value="30"/>
      <unit value="tablets"/>
      <system value="http://unitsofmeasure.org"/>
      <code value="{tablets}"/>
  </quantity>

  <daysSupply>
      <value value="30" />
      <unit value="days" />
      <system value="http://unitsofmeasure.org" />
      <code value="d" />
  </daysSupply>

  <medication>
      <reference value="#med"/>
  </medication>

  <whenHandedOver value="2009-08-04"/>

</MedicationDispense>

  </resource>
  <request>
    <method value="PUT"/>
    <url value="MedicationDispense/ID300-md"/>
  </request>
</entry>
<entry>
  <resource>
    
    
<MedicationDispense>
  <id value="ID293-md"/>
  <!--  insert contents here  -->
   <text>
    <status value="generated"/>
    <div xmlns="http://www.w3.org/1999/xhtml">
      Dispensed 30 tablets = 30 day supply of Digoxin 0.25 MG Oral Tablet [Lanoxin]
    </div>
  </text>  

  <contained>
    <Medication>
      <id value="med"/>
      <name value="Digoxin 0.25 MG Oral Tablet [Lanoxin]"/>
      <code>
	<coding>
	<system value="http://www.nlm.nih.gov/research/umls/rxnorm"/>
	  <code value="309889"/>
	  <display value="Digoxin 0.25 MG Oral Tablet [Lanoxin]"/>
	</coding>
      </code>
    </Medication>
  </contained>
  
  <status value="completed"/>

  <patient>
    <reference value="Patient/ID1768562"/>
  </patient>

  <authorizingPrescription>
    <reference value="MedicationOrder/ID201-mp"/>
  </authorizingPrescription>

  <quantity>
      <value value="30"/>
      <unit value="tablets"/>
      <system value="http://unitsofmeasure.org"/>
      <code value="{tablets}"/>
  </quantity>

  <daysSupply>
      <value value="30" />
      <unit value="days" />
      <system value="http://unitsofmeasure.org" />
      <code value="d" />
  </daysSupply>

  <medication>
      <reference value="#med"/>
  </medication>

  <whenHandedOver value="2008-11-25"/>

</MedicationDispense>

  </resource>
  <request>
    <method value="PUT"/>
    <url value="MedicationDispense/ID293-md"/>
  </request>
</entry>
<entry>
  <resource>
    
    
<MedicationDispense>
  <id value="ID297-md"/>
  <!--  insert contents here  -->
   <text>
    <status value="generated"/>
    <div xmlns="http://www.w3.org/1999/xhtml">
      Dispensed 30 tablets = 30 day supply of Digoxin 0.25 MG Oral Tablet [Lanoxin]
    </div>
  </text>  

  <contained>
    <Medication>
      <id value="med"/>
      <name value="Digoxin 0.25 MG Oral Tablet [Lanoxin]"/>
      <code>
	<coding>
	<system value="http://www.nlm.nih.gov/research/umls/rxnorm"/>
	  <code value="309889"/>
	  <display value="Digoxin 0.25 MG Oral Tablet [Lanoxin]"/>
	</coding>
      </code>
    </Medication>
  </contained>
  
  <status value="completed"/>

  <patient>
    <reference value="Patient/ID1768562"/>
  </patient>

  <authorizingPrescription>
    <reference value="MedicationOrder/ID201-mp"/>
  </authorizingPrescription>

  <quantity>
      <value value="30"/>
      <unit value="tablets"/>
      <system value="http://unitsofmeasure.org"/>
      <code value="{tablets}"/>
  </quantity>

  <daysSupply>
      <value value="30" />
      <unit value="days" />
      <system value="http://unitsofmeasure.org" />
      <code value="d" />
  </daysSupply>

  <medication>
      <reference value="#med"/>
  </medication>

  <whenHandedOver value="2009-04-30"/>

</MedicationDispense>

  </resource>
  <request>
    <method value="PUT"/>
    <url value="MedicationDispense/ID297-md"/>
  </request>
</entry>
<entry>
  <resource>
    
    
<MedicationDispense>
  <id value="ID296-md"/>
  <!--  insert contents here  -->
   <text>
    <status value="generated"/>
    <div xmlns="http://www.w3.org/1999/xhtml">
      Dispensed 30 tablets = 30 day supply of Digoxin 0.25 MG Oral Tablet [Lanoxin]
    </div>
  </text>  

  <contained>
    <Medication>
      <id value="med"/>
      <name value="Digoxin 0.25 MG Oral Tablet [Lanoxin]"/>
      <code>
	<coding>
	<system value="http://www.nlm.nih.gov/research/umls/rxnorm"/>
	  <code value="309889"/>
	  <display value="Digoxin 0.25 MG Oral Tablet [Lanoxin]"/>
	</coding>
      </code>
    </Medication>
  </contained>
  
  <status value="completed"/>

  <patient>
    <reference value="Patient/ID1768562"/>
  </patient>

  <authorizingPrescription>
    <reference value="MedicationOrder/ID201-mp"/>
  </authorizingPrescription>

  <quantity>
      <value value="30"/>
      <unit value="tablets"/>
      <system value="http://unitsofmeasure.org"/>
      <code value="{tablets}"/>
  </quantity>

  <daysSupply>
      <value value="30" />
      <unit value="days" />
      <system value="http://unitsofmeasure.org" />
      <code value="d" />
  </daysSupply>

  <medication>
      <reference value="#med"/>
  </medication>

  <whenHandedOver value="2009-04-02"/>

</MedicationDispense>

  </resource>
  <request>
    <method value="PUT"/>
    <url value="MedicationDispense/ID296-md"/>
  </request>
</entry>
<entry>
  <resource>
    
    
<MedicationDispense>
  <id value="ID299-md"/>
  <!--  insert contents here  -->
   <text>
    <status value="generated"/>
    <div xmlns="http://www.w3.org/1999/xhtml">
      Dispensed 30 tablets = 30 day supply of Digoxin 0.25 MG Oral Tablet [Lanoxin]
    </div>
  </text>  

  <contained>
    <Medication>
      <id value="med"/>
      <name value="Digoxin 0.25 MG Oral Tablet [Lanoxin]"/>
      <code>
	<coding>
	<system value="http://www.nlm.nih.gov/research/umls/rxnorm"/>
	  <code value="309889"/>
	  <display value="Digoxin 0.25 MG Oral Tablet [Lanoxin]"/>
	</coding>
      </code>
    </Medication>
  </contained>
  
  <status value="completed"/>

  <patient>
    <reference value="Patient/ID1768562"/>
  </patient>

  <authorizingPrescription>
    <reference value="MedicationOrder/ID201-mp"/>
  </authorizingPrescription>

  <quantity>
      <value value="30"/>
      <unit value="tablets"/>
      <system value="http://unitsofmeasure.org"/>
      <code value="{tablets}"/>
  </quantity>

  <daysSupply>
      <value value="30" />
      <unit value="days" />
      <system value="http://unitsofmeasure.org" />
      <code value="d" />
  </daysSupply>

  <medication>
      <reference value="#med"/>
  </medication>

  <whenHandedOver value="2009-07-02"/>

</MedicationDispense>

  </resource>
  <request>
    <method value="PUT"/>
    <url value="MedicationDispense/ID299-md"/>
  </request>
</entry>
<entry>
  <resource>
    
    
<MedicationDispense>
  <id value="ID292-md"/>
  <!--  insert contents here  -->
   <text>
    <status value="generated"/>
    <div xmlns="http://www.w3.org/1999/xhtml">
      Dispensed 30 tablets = 30 day supply of Digoxin 0.25 MG Oral Tablet [Lanoxin]
    </div>
  </text>  

  <contained>
    <Medication>
      <id value="med"/>
      <name value="Digoxin 0.25 MG Oral Tablet [Lanoxin]"/>
      <code>
	<coding>
	<system value="http://www.nlm.nih.gov/research/umls/rxnorm"/>
	  <code value="309889"/>
	  <display value="Digoxin 0.25 MG Oral Tablet [Lanoxin]"/>
	</coding>
      </code>
    </Medication>
  </contained>
  
  <status value="completed"/>

  <patient>
    <reference value="Patient/ID1768562"/>
  </patient>

  <authorizingPrescription>
    <reference value="MedicationOrder/ID201-mp"/>
  </authorizingPrescription>

  <quantity>
      <value value="30"/>
      <unit value="tablets"/>
      <system value="http://unitsofmeasure.org"/>
      <code value="{tablets}"/>
  </quantity>

  <daysSupply>
      <value value="30" />
      <unit value="days" />
      <system value="http://unitsofmeasure.org" />
      <code value="d" />
  </daysSupply>

  <medication>
      <reference value="#med"/>
  </medication>

  <whenHandedOver value="2008-10-30"/>

</MedicationDispense>

  </resource>
  <request>
    <method value="PUT"/>
    <url value="MedicationDispense/ID292-md"/>
  </request>
</entry>
<entry>
  <resource>
    
    
<MedicationDispense>
  <id value="ID301-md"/>
  <!--  insert contents here  -->
   <text>
    <status value="generated"/>
    <div xmlns="http://www.w3.org/1999/xhtml">
      Dispensed 30 tablets = 30 day supply of Digoxin 0.25 MG Oral Tablet [Lanoxin]
    </div>
  </text>  

  <contained>
    <Medication>
      <id value="med"/>
      <name value="Digoxin 0.25 MG Oral Tablet [Lanoxin]"/>
      <code>
	<coding>
	<system value="http://www.nlm.nih.gov/research/umls/rxnorm"/>
	  <code value="309889"/>
	  <display value="Digoxin 0.25 MG Oral Tablet [Lanoxin]"/>
	</coding>
      </code>
    </Medication>
  </contained>
  
  <status value="completed"/>

  <patient>
    <reference value="Patient/ID1768562"/>
  </patient>

  <authorizingPrescription>
    <reference value="MedicationOrder/ID201-mp"/>
  </authorizingPrescription>

  <quantity>
      <value value="30"/>
      <unit value="tablets"/>
      <system value="http://unitsofmeasure.org"/>
      <code value="{tablets}"/>
  </quantity>

  <daysSupply>
      <value value="30" />
      <unit value="days" />
      <system value="http://unitsofmeasure.org" />
      <code value="d" />
  </daysSupply>

  <medication>
      <reference value="#med"/>
  </medication>

  <whenHandedOver value="2009-08-31"/>

</MedicationDispense>

  </resource>
  <request>
    <method value="PUT"/>
    <url value="MedicationDispense/ID301-md"/>
  </request>
</entry>
<entry>
  <resource>
    
    
<MedicationOrder>
  <id value="ID202-mp"/>
  <text>
    <status value="generated"/>
    <div xmlns="http://www.w3.org/1999/xhtml">
      Cyclobenzaprine hydrochloride 10 MG Oral Tablet (rxnorm: 828348)
    </div>
  </text>

  <contained>
    <Medication>
      <id value="med"/>
      <name value="Cyclobenzaprine hydrochloride 10 MG Oral Tablet"/>
      <code>
	<coding>
	<system value="http://www.nlm.nih.gov/research/umls/rxnorm"/>
	  <code value="828348"/>
	  <display value="Cyclobenzaprine hydrochloride 10 MG Oral Tablet"/>
	</coding>
      </code>
    </Medication>
  </contained>

  <status value="active" />
  <patient>
    <reference value="Patient/ID1768562"/>
  </patient>

  <medication>
    <reference value="#med"/>
  </medication>

  <dosageInstruction>
    <scheduledTiming>
      <repeat>
        <bounds>
          <start value="2008-07-30"/>
        </bounds>
        <frequency value="3"/>
        <duration value="1"/>
        <durationUnits value="d"/>
      </repeat>
      
    </scheduledTiming>
    <doseQuantity>
      <value value="1"/>
      <unit value="{tablet}"/>
      <system value="http://unitsofmeasure.org"/>
      <code value="{tablet}"/>
    </doseQuantity>
    
    <asNeededBoolean value="true"/>
    
    <text value="1 tid prn"/>
  </dosageInstruction>
  <dispense>
     <numberOfRepeatsAllowed value="1"/>
     
     <quantity>
        <value value="30"/>
        <unit value="{tablet}"/>
        <system value="http://unitsofmeasure.org"/>
        <code value="{tablet}"/>
     </quantity>
     
     <expectedSupplyDuration>
        <value value="30"/>
        <unit value="days"/>
        <system value="http://unitsofmeasure.org"/>
        <code value="d"/>
     </expectedSupplyDuration>
     
  </dispense>
  
</MedicationOrder>

  </resource>
  <request>
    <method value="PUT"/>
    <url value="MedicationOrder/ID202-mp"/>
  </request>
</entry>
<entry>
  <resource>
    
    
<MedicationDispense>
  <id value="ID271-md"/>
  <!--  insert contents here  -->
   <text>
    <status value="generated"/>
    <div xmlns="http://www.w3.org/1999/xhtml">
      Dispensed 30 tablets = 30 day supply of Cyclobenzaprine hydrochloride 10 MG Oral Tablet
    </div>
  </text>  

  <contained>
    <Medication>
      <id value="med"/>
      <name value="Cyclobenzaprine hydrochloride 10 MG Oral Tablet"/>
      <code>
	<coding>
	<system value="http://www.nlm.nih.gov/research/umls/rxnorm"/>
	  <code value="828348"/>
	  <display value="Cyclobenzaprine hydrochloride 10 MG Oral Tablet"/>
	</coding>
      </code>
    </Medication>
  </contained>
  
  <status value="completed"/>

  <patient>
    <reference value="Patient/ID1768562"/>
  </patient>

  <authorizingPrescription>
    <reference value="MedicationOrder/ID202-mp"/>
  </authorizingPrescription>

  <quantity>
      <value value="30"/>
      <unit value="tablets"/>
      <system value="http://unitsofmeasure.org"/>
      <code value="{tablets}"/>
  </quantity>

  <daysSupply>
      <value value="30" />
      <unit value="days" />
      <system value="http://unitsofmeasure.org" />
      <code value="d" />
  </daysSupply>

  <medication>
      <reference value="#med"/>
  </medication>

  <whenHandedOver value="2008-12-06"/>

</MedicationDispense>

  </resource>
  <request>
    <method value="PUT"/>
    <url value="MedicationDispense/ID271-md"/>
  </request>
</entry>
<entry>
  <resource>
    
    
<MedicationDispense>
  <id value="ID267-md"/>
  <!--  insert contents here  -->
   <text>
    <status value="generated"/>
    <div xmlns="http://www.w3.org/1999/xhtml">
      Dispensed 30 tablets = 30 day supply of Cyclobenzaprine hydrochloride 10 MG Oral Tablet
    </div>
  </text>  

  <contained>
    <Medication>
      <id value="med"/>
      <name value="Cyclobenzaprine hydrochloride 10 MG Oral Tablet"/>
      <code>
	<coding>
	<system value="http://www.nlm.nih.gov/research/umls/rxnorm"/>
	  <code value="828348"/>
	  <display value="Cyclobenzaprine hydrochloride 10 MG Oral Tablet"/>
	</coding>
      </code>
    </Medication>
  </contained>
  
  <status value="completed"/>

  <patient>
    <reference value="Patient/ID1768562"/>
  </patient>

  <authorizingPrescription>
    <reference value="MedicationOrder/ID202-mp"/>
  </authorizingPrescription>

  <quantity>
      <value value="30"/>
      <unit value="tablets"/>
      <system value="http://unitsofmeasure.org"/>
      <code value="{tablets}"/>
  </quantity>

  <daysSupply>
      <value value="30" />
      <unit value="days" />
      <system value="http://unitsofmeasure.org" />
      <code value="d" />
  </daysSupply>

  <medication>
      <reference value="#med"/>
  </medication>

  <whenHandedOver value="2008-07-30"/>

</MedicationDispense>

  </resource>
  <request>
    <method value="PUT"/>
    <url value="MedicationDispense/ID267-md"/>
  </request>
</entry>
<entry>
  <resource>
    
    
<MedicationDispense>
  <id value="ID270-md"/>
  <!--  insert contents here  -->
   <text>
    <status value="generated"/>
    <div xmlns="http://www.w3.org/1999/xhtml">
      Dispensed 30 tablets = 30 day supply of Cyclobenzaprine hydrochloride 10 MG Oral Tablet
    </div>
  </text>  

  <contained>
    <Medication>
      <id value="med"/>
      <name value="Cyclobenzaprine hydrochloride 10 MG Oral Tablet"/>
      <code>
	<coding>
	<system value="http://www.nlm.nih.gov/research/umls/rxnorm"/>
	  <code value="828348"/>
	  <display value="Cyclobenzaprine hydrochloride 10 MG Oral Tablet"/>
	</coding>
      </code>
    </Medication>
  </contained>
  
  <status value="completed"/>

  <patient>
    <reference value="Patient/ID1768562"/>
  </patient>

  <authorizingPrescription>
    <reference value="MedicationOrder/ID202-mp"/>
  </authorizingPrescription>

  <quantity>
      <value value="30"/>
      <unit value="tablets"/>
      <system value="http://unitsofmeasure.org"/>
      <code value="{tablets}"/>
  </quantity>

  <daysSupply>
      <value value="30" />
      <unit value="days" />
      <system value="http://unitsofmeasure.org" />
      <code value="d" />
  </daysSupply>

  <medication>
      <reference value="#med"/>
  </medication>

  <whenHandedOver value="2008-11-08"/>

</MedicationDispense>

  </resource>
  <request>
    <method value="PUT"/>
    <url value="MedicationDispense/ID270-md"/>
  </request>
</entry>
<entry>
  <resource>
    
    
<MedicationDispense>
  <id value="ID268-md"/>
  <!--  insert contents here  -->
   <text>
    <status value="generated"/>
    <div xmlns="http://www.w3.org/1999/xhtml">
      Dispensed 30 tablets = 30 day supply of Cyclobenzaprine hydrochloride 10 MG Oral Tablet
    </div>
  </text>  

  <contained>
    <Medication>
      <id value="med"/>
      <name value="Cyclobenzaprine hydrochloride 10 MG Oral Tablet"/>
      <code>
	<coding>
	<system value="http://www.nlm.nih.gov/research/umls/rxnorm"/>
	  <code value="828348"/>
	  <display value="Cyclobenzaprine hydrochloride 10 MG Oral Tablet"/>
	</coding>
      </code>
    </Medication>
  </contained>
  
  <status value="completed"/>

  <patient>
    <reference value="Patient/ID1768562"/>
  </patient>

  <authorizingPrescription>
    <reference value="MedicationOrder/ID202-mp"/>
  </authorizingPrescription>

  <quantity>
      <value value="30"/>
      <unit value="tablets"/>
      <system value="http://unitsofmeasure.org"/>
      <code value="{tablets}"/>
  </quantity>

  <daysSupply>
      <value value="30" />
      <unit value="days" />
      <system value="http://unitsofmeasure.org" />
      <code value="d" />
  </daysSupply>

  <medication>
      <reference value="#med"/>
  </medication>

  <whenHandedOver value="2008-08-31"/>

</MedicationDispense>

  </resource>
  <request>
    <method value="PUT"/>
    <url value="MedicationDispense/ID268-md"/>
  </request>
</entry>
<entry>
  <resource>
    
    
<MedicationDispense>
  <id value="ID269-md"/>
  <!--  insert contents here  -->
   <text>
    <status value="generated"/>
    <div xmlns="http://www.w3.org/1999/xhtml">
      Dispensed 30 tablets = 30 day supply of Cyclobenzaprine hydrochloride 10 MG Oral Tablet
    </div>
  </text>  

  <contained>
    <Medication>
      <id value="med"/>
      <name value="Cyclobenzaprine hydrochloride 10 MG Oral Tablet"/>
      <code>
	<coding>
	<system value="http://www.nlm.nih.gov/research/umls/rxnorm"/>
	  <code value="828348"/>
	  <display value="Cyclobenzaprine hydrochloride 10 MG Oral Tablet"/>
	</coding>
      </code>
    </Medication>
  </contained>
  
  <status value="completed"/>

  <patient>
    <reference value="Patient/ID1768562"/>
  </patient>

  <authorizingPrescription>
    <reference value="MedicationOrder/ID202-mp"/>
  </authorizingPrescription>

  <quantity>
      <value value="30"/>
      <unit value="tablets"/>
      <system value="http://unitsofmeasure.org"/>
      <code value="{tablets}"/>
  </quantity>

  <daysSupply>
      <value value="30" />
      <unit value="days" />
      <system value="http://unitsofmeasure.org" />
      <code value="d" />
  </daysSupply>

  <medication>
      <reference value="#med"/>
  </medication>

  <whenHandedOver value="2008-10-05"/>

</MedicationDispense>

  </resource>
  <request>
    <method value="PUT"/>
    <url value="MedicationDispense/ID269-md"/>
  </request>
</entry>
<entry>
  <resource>
    
    
<MedicationOrder>
  <id value="ID203-mp"/>
  <text>
    <status value="generated"/>
    <div xmlns="http://www.w3.org/1999/xhtml">
      Warfarin 5 MG Oral Tablet [Coumadin] (rxnorm: 855334)
    </div>
  </text>

  <contained>
    <Medication>
      <id value="med"/>
      <name value="Warfarin 5 MG Oral Tablet [Coumadin]"/>
      <code>
	<coding>
	<system value="http://www.nlm.nih.gov/research/umls/rxnorm"/>
	  <code value="855334"/>
	  <display value="Warfarin 5 MG Oral Tablet [Coumadin]"/>
	</coding>
      </code>
    </Medication>
  </contained>

  <status value="active" />
  <patient>
    <reference value="Patient/ID1768562"/>
  </patient>

  <medication>
    <reference value="#med"/>
  </medication>

  <dosageInstruction>
    <scheduledTiming>
      <repeat>
        <bounds>
          <start value="2008-07-30"/>
        </bounds>
        <frequency value="1"/>
        <duration value="1"/>
        <durationUnits value="d"/>
      </repeat>
      
    </scheduledTiming>
    <doseQuantity>
      <value value="1"/>
      <unit value="{tablet}"/>
      <system value="http://unitsofmeasure.org"/>
      <code value="{tablet}"/>
    </doseQuantity>
    
    <text value="1 daily"/>
  </dosageInstruction>
  <dispense>
     <numberOfRepeatsAllowed value="1"/>
     
     <quantity>
        <value value="90"/>
        <unit value="{tablet}"/>
        <system value="http://unitsofmeasure.org"/>
        <code value="{tablet}"/>
     </quantity>
     
     <expectedSupplyDuration>
        <value value="90"/>
        <unit value="days"/>
        <system value="http://unitsofmeasure.org"/>
        <code value="d"/>
     </expectedSupplyDuration>
     
  </dispense>
  
</MedicationOrder>

  </resource>
  <request>
    <method value="PUT"/>
    <url value="MedicationOrder/ID203-mp"/>
  </request>
</entry>
<entry>
  <resource>
    
    
<MedicationDispense>
  <id value="ID285-md"/>
  <!--  insert contents here  -->
   <text>
    <status value="generated"/>
    <div xmlns="http://www.w3.org/1999/xhtml">
      Dispensed 30 tablets = 30 day supply of Warfarin 5 MG Oral Tablet [Coumadin]
    </div>
  </text>  

  <contained>
    <Medication>
      <id value="med"/>
      <name value="Warfarin 5 MG Oral Tablet [Coumadin]"/>
      <code>
	<coding>
	<system value="http://www.nlm.nih.gov/research/umls/rxnorm"/>
	  <code value="855334"/>
	  <display value="Warfarin 5 MG Oral Tablet [Coumadin]"/>
	</coding>
      </code>
    </Medication>
  </contained>
  
  <status value="completed"/>

  <patient>
    <reference value="Patient/ID1768562"/>
  </patient>

  <authorizingPrescription>
    <reference value="MedicationOrder/ID203-mp"/>
  </authorizingPrescription>

  <quantity>
      <value value="30"/>
      <unit value="tablets"/>
      <system value="http://unitsofmeasure.org"/>
      <code value="{tablets}"/>
  </quantity>

  <daysSupply>
      <value value="30" />
      <unit value="days" />
      <system value="http://unitsofmeasure.org" />
      <code value="d" />
  </daysSupply>

  <medication>
      <reference value="#med"/>
  </medication>

  <whenHandedOver value="2009-05-12"/>

</MedicationDispense>

  </resource>
  <request>
    <method value="PUT"/>
    <url value="MedicationDispense/ID285-md"/>
  </request>
</entry>
<entry>
  <resource>
    
    
<MedicationDispense>
  <id value="ID288-md"/>
  <!--  insert contents here  -->
   <text>
    <status value="generated"/>
    <div xmlns="http://www.w3.org/1999/xhtml">
      Dispensed 30 tablets = 30 day supply of Warfarin 5 MG Oral Tablet [Coumadin]
    </div>
  </text>  

  <contained>
    <Medication>
      <id value="med"/>
      <name value="Warfarin 5 MG Oral Tablet [Coumadin]"/>
      <code>
	<coding>
	<system value="http://www.nlm.nih.gov/research/umls/rxnorm"/>
	  <code value="855334"/>
	  <display value="Warfarin 5 MG Oral Tablet [Coumadin]"/>
	</coding>
      </code>
    </Medication>
  </contained>
  
  <status value="completed"/>

  <patient>
    <reference value="Patient/ID1768562"/>
  </patient>

  <authorizingPrescription>
    <reference value="MedicationOrder/ID203-mp"/>
  </authorizingPrescription>

  <quantity>
      <value value="30"/>
      <unit value="tablets"/>
      <system value="http://unitsofmeasure.org"/>
      <code value="{tablets}"/>
  </quantity>

  <daysSupply>
      <value value="30" />
      <unit value="days" />
      <system value="http://unitsofmeasure.org" />
      <code value="d" />
  </daysSupply>

  <medication>
      <reference value="#med"/>
  </medication>

  <whenHandedOver value="2009-08-12"/>

</MedicationDispense>

  </resource>
  <request>
    <method value="PUT"/>
    <url value="MedicationDispense/ID288-md"/>
  </request>
</entry>
<entry>
  <resource>
    
    
<MedicationDispense>
  <id value="ID286-md"/>
  <!--  insert contents here  -->
   <text>
    <status value="generated"/>
    <div xmlns="http://www.w3.org/1999/xhtml">
      Dispensed 30 tablets = 30 day supply of Warfarin 5 MG Oral Tablet [Coumadin]
    </div>
  </text>  

  <contained>
    <Medication>
      <id value="med"/>
      <name value="Warfarin 5 MG Oral Tablet [Coumadin]"/>
      <code>
	<coding>
	<system value="http://www.nlm.nih.gov/research/umls/rxnorm"/>
	  <code value="855334"/>
	  <display value="Warfarin 5 MG Oral Tablet [Coumadin]"/>
	</coding>
      </code>
    </Medication>
  </contained>
  
  <status value="completed"/>

  <patient>
    <reference value="Patient/ID1768562"/>
  </patient>

  <authorizingPrescription>
    <reference value="MedicationOrder/ID203-mp"/>
  </authorizingPrescription>

  <quantity>
      <value value="30"/>
      <unit value="tablets"/>
      <system value="http://unitsofmeasure.org"/>
      <code value="{tablets}"/>
  </quantity>

  <daysSupply>
      <value value="30" />
      <unit value="days" />
      <system value="http://unitsofmeasure.org" />
      <code value="d" />
  </daysSupply>

  <medication>
      <reference value="#med"/>
  </medication>

  <whenHandedOver value="2009-06-13"/>

</MedicationDispense>

  </resource>
  <request>
    <method value="PUT"/>
    <url value="MedicationDispense/ID286-md"/>
  </request>
</entry>
<entry>
  <resource>
    
    
<MedicationDispense>
  <id value="ID287-md"/>
  <!--  insert contents here  -->
   <text>
    <status value="generated"/>
    <div xmlns="http://www.w3.org/1999/xhtml">
      Dispensed 30 tablets = 30 day supply of Warfarin 5 MG Oral Tablet [Coumadin]
    </div>
  </text>  

  <contained>
    <Medication>
      <id value="med"/>
      <name value="Warfarin 5 MG Oral Tablet [Coumadin]"/>
      <code>
	<coding>
	<system value="http://www.nlm.nih.gov/research/umls/rxnorm"/>
	  <code value="855334"/>
	  <display value="Warfarin 5 MG Oral Tablet [Coumadin]"/>
	</coding>
      </code>
    </Medication>
  </contained>
  
  <status value="completed"/>

  <patient>
    <reference value="Patient/ID1768562"/>
  </patient>

  <authorizingPrescription>
    <reference value="MedicationOrder/ID203-mp"/>
  </authorizingPrescription>

  <quantity>
      <value value="30"/>
      <unit value="tablets"/>
      <system value="http://unitsofmeasure.org"/>
      <code value="{tablets}"/>
  </quantity>

  <daysSupply>
      <value value="30" />
      <unit value="days" />
      <system value="http://unitsofmeasure.org" />
      <code value="d" />
  </daysSupply>

  <medication>
      <reference value="#med"/>
  </medication>

  <whenHandedOver value="2009-07-15"/>

</MedicationDispense>

  </resource>
  <request>
    <method value="PUT"/>
    <url value="MedicationDispense/ID287-md"/>
  </request>
</entry>
<entry>
  <resource>
    
    
<MedicationDispense>
  <id value="ID283-md"/>
  <!--  insert contents here  -->
   <text>
    <status value="generated"/>
    <div xmlns="http://www.w3.org/1999/xhtml">
      Dispensed 30 tablets = 30 day supply of Warfarin 5 MG Oral Tablet [Coumadin]
    </div>
  </text>  

  <contained>
    <Medication>
      <id value="med"/>
      <name value="Warfarin 5 MG Oral Tablet [Coumadin]"/>
      <code>
	<coding>
	<system value="http://www.nlm.nih.gov/research/umls/rxnorm"/>
	  <code value="855334"/>
	  <display value="Warfarin 5 MG Oral Tablet [Coumadin]"/>
	</coding>
      </code>
    </Medication>
  </contained>
  
  <status value="completed"/>

  <patient>
    <reference value="Patient/ID1768562"/>
  </patient>

  <authorizingPrescription>
    <reference value="MedicationOrder/ID203-mp"/>
  </authorizingPrescription>

  <quantity>
      <value value="30"/>
      <unit value="tablets"/>
      <system value="http://unitsofmeasure.org"/>
      <code value="{tablets}"/>
  </quantity>

  <daysSupply>
      <value value="30" />
      <unit value="days" />
      <system value="http://unitsofmeasure.org" />
      <code value="d" />
  </daysSupply>

  <medication>
      <reference value="#med"/>
  </medication>

  <whenHandedOver value="2009-03-15"/>

</MedicationDispense>

  </resource>
  <request>
    <method value="PUT"/>
    <url value="MedicationDispense/ID283-md"/>
  </request>
</entry>
<entry>
  <resource>
    
    
<MedicationDispense>
  <id value="ID281-md"/>
  <!--  insert contents here  -->
   <text>
    <status value="generated"/>
    <div xmlns="http://www.w3.org/1999/xhtml">
      Dispensed 90 tablets = 90 day supply of Warfarin 5 MG Oral Tablet [Coumadin]
    </div>
  </text>  

  <contained>
    <Medication>
      <id value="med"/>
      <name value="Warfarin 5 MG Oral Tablet [Coumadin]"/>
      <code>
	<coding>
	<system value="http://www.nlm.nih.gov/research/umls/rxnorm"/>
	  <code value="855334"/>
	  <display value="Warfarin 5 MG Oral Tablet [Coumadin]"/>
	</coding>
      </code>
    </Medication>
  </contained>
  
  <status value="completed"/>

  <patient>
    <reference value="Patient/ID1768562"/>
  </patient>

  <authorizingPrescription>
    <reference value="MedicationOrder/ID203-mp"/>
  </authorizingPrescription>

  <quantity>
      <value value="90"/>
      <unit value="tablets"/>
      <system value="http://unitsofmeasure.org"/>
      <code value="{tablets}"/>
  </quantity>

  <daysSupply>
      <value value="90" />
      <unit value="days" />
      <system value="http://unitsofmeasure.org" />
      <code value="d" />
  </daysSupply>

  <medication>
      <reference value="#med"/>
  </medication>

  <whenHandedOver value="2008-07-30"/>

</MedicationDispense>

  </resource>
  <request>
    <method value="PUT"/>
    <url value="MedicationDispense/ID281-md"/>
  </request>
</entry>
<entry>
  <resource>
    
    
<MedicationDispense>
  <id value="ID284-md"/>
  <!--  insert contents here  -->
   <text>
    <status value="generated"/>
    <div xmlns="http://www.w3.org/1999/xhtml">
      Dispensed 30 tablets = 30 day supply of Warfarin 5 MG Oral Tablet [Coumadin]
    </div>
  </text>  

  <contained>
    <Medication>
      <id value="med"/>
      <name value="Warfarin 5 MG Oral Tablet [Coumadin]"/>
      <code>
	<coding>
	<system value="http://www.nlm.nih.gov/research/umls/rxnorm"/>
	  <code value="855334"/>
	  <display value="Warfarin 5 MG Oral Tablet [Coumadin]"/>
	</coding>
      </code>
    </Medication>
  </contained>
  
  <status value="completed"/>

  <patient>
    <reference value="Patient/ID1768562"/>
  </patient>

  <authorizingPrescription>
    <reference value="MedicationOrder/ID203-mp"/>
  </authorizingPrescription>

  <quantity>
      <value value="30"/>
      <unit value="tablets"/>
      <system value="http://unitsofmeasure.org"/>
      <code value="{tablets}"/>
  </quantity>

  <daysSupply>
      <value value="30" />
      <unit value="days" />
      <system value="http://unitsofmeasure.org" />
      <code value="d" />
  </daysSupply>

  <medication>
      <reference value="#med"/>
  </medication>

  <whenHandedOver value="2009-04-11"/>

</MedicationDispense>

  </resource>
  <request>
    <method value="PUT"/>
    <url value="MedicationDispense/ID284-md"/>
  </request>
</entry>
<entry>
  <resource>
    
    
<MedicationDispense>
  <id value="ID282-md"/>
  <!--  insert contents here  -->
   <text>
    <status value="generated"/>
    <div xmlns="http://www.w3.org/1999/xhtml">
      Dispensed 90 tablets = 90 day supply of Warfarin 5 MG Oral Tablet [Coumadin]
    </div>
  </text>  

  <contained>
    <Medication>
      <id value="med"/>
      <name value="Warfarin 5 MG Oral Tablet [Coumadin]"/>
      <code>
	<coding>
	<system value="http://www.nlm.nih.gov/research/umls/rxnorm"/>
	  <code value="855334"/>
	  <display value="Warfarin 5 MG Oral Tablet [Coumadin]"/>
	</coding>
      </code>
    </Medication>
  </contained>
  
  <status value="completed"/>

  <patient>
    <reference value="Patient/ID1768562"/>
  </patient>

  <authorizingPrescription>
    <reference value="MedicationOrder/ID203-mp"/>
  </authorizingPrescription>

  <quantity>
      <value value="90"/>
      <unit value="tablets"/>
      <system value="http://unitsofmeasure.org"/>
      <code value="{tablets}"/>
  </quantity>

  <daysSupply>
      <value value="90" />
      <unit value="days" />
      <system value="http://unitsofmeasure.org" />
      <code value="d" />
  </daysSupply>

  <medication>
      <reference value="#med"/>
  </medication>

  <whenHandedOver value="2008-11-06"/>

</MedicationDispense>

  </resource>
  <request>
    <method value="PUT"/>
    <url value="MedicationDispense/ID282-md"/>
  </request>
</entry>
<entry>
  <resource>
    
    
<MedicationOrder>
  <id value="ID204-mp"/>
  <text>
    <status value="generated"/>
    <div xmlns="http://www.w3.org/1999/xhtml">
      celecoxib 200 MG Oral Capsule [Celebrex] (rxnorm: 213469)
    </div>
  </text>

  <contained>
    <Medication>
      <id value="med"/>
      <name value="celecoxib 200 MG Oral Capsule [Celebrex]"/>
      <code>
	<coding>
	<system value="http://www.nlm.nih.gov/research/umls/rxnorm"/>
	  <code value="213469"/>
	  <display value="celecoxib 200 MG Oral Capsule [Celebrex]"/>
	</coding>
      </code>
    </Medication>
  </contained>

  <status value="active" />
  <patient>
    <reference value="Patient/ID1768562"/>
  </patient>

  <medication>
    <reference value="#med"/>
  </medication>

  <dosageInstruction>
    <scheduledTiming>
      <repeat>
        <bounds>
          <start value="2008-08-22"/>
        </bounds>
        <frequency value="1"/>
        <duration value="1"/>
        <durationUnits value="d"/>
      </repeat>
      
    </scheduledTiming>
    <doseQuantity>
      <value value="1"/>
      <unit value="{tablet}"/>
      <system value="http://unitsofmeasure.org"/>
      <code value="{tablet}"/>
    </doseQuantity>
    
    <text value="1 daily"/>
  </dosageInstruction>
  <dispense>
     <numberOfRepeatsAllowed value="1"/>
     
     <quantity>
        <value value="30"/>
        <unit value="{tablet}"/>
        <system value="http://unitsofmeasure.org"/>
        <code value="{tablet}"/>
     </quantity>
     
     <expectedSupplyDuration>
        <value value="30"/>
        <unit value="days"/>
        <system value="http://unitsofmeasure.org"/>
        <code value="d"/>
     </expectedSupplyDuration>
     
  </dispense>
  
</MedicationOrder>

  </resource>
  <request>
    <method value="PUT"/>
    <url value="MedicationOrder/ID204-mp"/>
  </request>
</entry>
<entry>
  <resource>
    
    
<MedicationDispense>
  <id value="ID279-md"/>
  <!--  insert contents here  -->
   <text>
    <status value="generated"/>
    <div xmlns="http://www.w3.org/1999/xhtml">
      Dispensed 30 tablets = 30 day supply of celecoxib 200 MG Oral Capsule [Celebrex]
    </div>
  </text>  

  <contained>
    <Medication>
      <id value="med"/>
      <name value="celecoxib 200 MG Oral Capsule [Celebrex]"/>
      <code>
	<coding>
	<system value="http://www.nlm.nih.gov/research/umls/rxnorm"/>
	  <code value="213469"/>
	  <display value="celecoxib 200 MG Oral Capsule [Celebrex]"/>
	</coding>
      </code>
    </Medication>
  </contained>
  
  <status value="completed"/>

  <patient>
    <reference value="Patient/ID1768562"/>
  </patient>

  <authorizingPrescription>
    <reference value="MedicationOrder/ID204-mp"/>
  </authorizingPrescription>

  <quantity>
      <value value="30"/>
      <unit value="tablets"/>
      <system value="http://unitsofmeasure.org"/>
      <code value="{tablets}"/>
  </quantity>

  <daysSupply>
      <value value="30" />
      <unit value="days" />
      <system value="http://unitsofmeasure.org" />
      <code value="d" />
  </daysSupply>

  <medication>
      <reference value="#med"/>
  </medication>

  <whenHandedOver value="2008-12-06"/>

</MedicationDispense>

  </resource>
  <request>
    <method value="PUT"/>
    <url value="MedicationDispense/ID279-md"/>
  </request>
</entry>
<entry>
  <resource>
    
    
<MedicationDispense>
  <id value="ID277-md"/>
  <!--  insert contents here  -->
   <text>
    <status value="generated"/>
    <div xmlns="http://www.w3.org/1999/xhtml">
      Dispensed 30 tablets = 30 day supply of celecoxib 200 MG Oral Capsule [Celebrex]
    </div>
  </text>  

  <contained>
    <Medication>
      <id value="med"/>
      <name value="celecoxib 200 MG Oral Capsule [Celebrex]"/>
      <code>
	<coding>
	<system value="http://www.nlm.nih.gov/research/umls/rxnorm"/>
	  <code value="213469"/>
	  <display value="celecoxib 200 MG Oral Capsule [Celebrex]"/>
	</coding>
      </code>
    </Medication>
  </contained>
  
  <status value="completed"/>

  <patient>
    <reference value="Patient/ID1768562"/>
  </patient>

  <authorizingPrescription>
    <reference value="MedicationOrder/ID204-mp"/>
  </authorizingPrescription>

  <quantity>
      <value value="30"/>
      <unit value="tablets"/>
      <system value="http://unitsofmeasure.org"/>
      <code value="{tablets}"/>
  </quantity>

  <daysSupply>
      <value value="30" />
      <unit value="days" />
      <system value="http://unitsofmeasure.org" />
      <code value="d" />
  </daysSupply>

  <medication>
      <reference value="#med"/>
  </medication>

  <whenHandedOver value="2008-09-22"/>

</MedicationDispense>

  </resource>
  <request>
    <method value="PUT"/>
    <url value="MedicationDispense/ID277-md"/>
  </request>
</entry>
<entry>
  <resource>
    
    
<MedicationDispense>
  <id value="ID276-md"/>
  <!--  insert contents here  -->
   <text>
    <status value="generated"/>
    <div xmlns="http://www.w3.org/1999/xhtml">
      Dispensed 30 tablets = 30 day supply of celecoxib 200 MG Oral Capsule [Celebrex]
    </div>
  </text>  

  <contained>
    <Medication>
      <id value="med"/>
      <name value="celecoxib 200 MG Oral Capsule [Celebrex]"/>
      <code>
	<coding>
	<system value="http://www.nlm.nih.gov/research/umls/rxnorm"/>
	  <code value="213469"/>
	  <display value="celecoxib 200 MG Oral Capsule [Celebrex]"/>
	</coding>
      </code>
    </Medication>
  </contained>
  
  <status value="completed"/>

  <patient>
    <reference value="Patient/ID1768562"/>
  </patient>

  <authorizingPrescription>
    <reference value="MedicationOrder/ID204-mp"/>
  </authorizingPrescription>

  <quantity>
      <value value="30"/>
      <unit value="tablets"/>
      <system value="http://unitsofmeasure.org"/>
      <code value="{tablets}"/>
  </quantity>

  <daysSupply>
      <value value="30" />
      <unit value="days" />
      <system value="http://unitsofmeasure.org" />
      <code value="d" />
  </daysSupply>

  <medication>
      <reference value="#med"/>
  </medication>

  <whenHandedOver value="2008-08-22"/>

</MedicationDispense>

  </resource>
  <request>
    <method value="PUT"/>
    <url value="MedicationDispense/ID276-md"/>
  </request>
</entry>
<entry>
  <resource>
    
    
<MedicationDispense>
  <id value="ID278-md"/>
  <!--  insert contents here  -->
   <text>
    <status value="generated"/>
    <div xmlns="http://www.w3.org/1999/xhtml">
      Dispensed 30 tablets = 30 day supply of celecoxib 200 MG Oral Capsule [Celebrex]
    </div>
  </text>  

  <contained>
    <Medication>
      <id value="med"/>
      <name value="celecoxib 200 MG Oral Capsule [Celebrex]"/>
      <code>
	<coding>
	<system value="http://www.nlm.nih.gov/research/umls/rxnorm"/>
	  <code value="213469"/>
	  <display value="celecoxib 200 MG Oral Capsule [Celebrex]"/>
	</coding>
      </code>
    </Medication>
  </contained>
  
  <status value="completed"/>

  <patient>
    <reference value="Patient/ID1768562"/>
  </patient>

  <authorizingPrescription>
    <reference value="MedicationOrder/ID204-mp"/>
  </authorizingPrescription>

  <quantity>
      <value value="30"/>
      <unit value="tablets"/>
      <system value="http://unitsofmeasure.org"/>
      <code value="{tablets}"/>
  </quantity>

  <daysSupply>
      <value value="30" />
      <unit value="days" />
      <system value="http://unitsofmeasure.org" />
      <code value="d" />
  </daysSupply>

  <medication>
      <reference value="#med"/>
  </medication>

  <whenHandedOver value="2008-10-30"/>

</MedicationDispense>

  </resource>
  <request>
    <method value="PUT"/>
    <url value="MedicationDispense/ID278-md"/>
  </request>
</entry>
<entry>
  <resource>
    
    
<MedicationOrder>
  <id value="ID205-mp"/>
  <text>
    <status value="generated"/>
    <div xmlns="http://www.w3.org/1999/xhtml">
      Ramipril 10 MG Oral Capsule (rxnorm: 261962)
    </div>
  </text>

  <contained>
    <Medication>
      <id value="med"/>
      <name value="Ramipril 10 MG Oral Capsule"/>
      <code>
	<coding>
	<system value="http://www.nlm.nih.gov/research/umls/rxnorm"/>
	  <code value="261962"/>
	  <display value="Ramipril 10 MG Oral Capsule"/>
	</coding>
      </code>
    </Medication>
  </contained>

  <status value="active" />
  <patient>
    <reference value="Patient/ID1768562"/>
  </patient>

  <medication>
    <reference value="#med"/>
  </medication>

  <dosageInstruction>
    <scheduledTiming>
      <repeat>
        <bounds>
          <start value="2008-08-28"/>
        </bounds>
        <frequency value="1"/>
        <duration value="1"/>
        <durationUnits value="d"/>
      </repeat>
      
    </scheduledTiming>
    <doseQuantity>
      <value value="1"/>
      <unit value="{tablet}"/>
      <system value="http://unitsofmeasure.org"/>
      <code value="{tablet}"/>
    </doseQuantity>
    
    <text value="1 daily"/>
  </dosageInstruction>
  <dispense>
     <numberOfRepeatsAllowed value="1"/>
     
     <quantity>
        <value value="180"/>
        <unit value="{tablet}"/>
        <system value="http://unitsofmeasure.org"/>
        <code value="{tablet}"/>
     </quantity>
     
     <expectedSupplyDuration>
        <value value="90"/>
        <unit value="days"/>
        <system value="http://unitsofmeasure.org"/>
        <code value="d"/>
     </expectedSupplyDuration>
     
  </dispense>
  
</MedicationOrder>

  </resource>
  <request>
    <method value="PUT"/>
    <url value="MedicationOrder/ID205-mp"/>
  </request>
</entry>
<entry>
  <resource>
    
    
<MedicationDispense>
  <id value="ID272-md"/>
  <!--  insert contents here  -->
   <text>
    <status value="generated"/>
    <div xmlns="http://www.w3.org/1999/xhtml">
      Dispensed 180 tablets = 90 day supply of Ramipril 10 MG Oral Capsule
    </div>
  </text>  

  <contained>
    <Medication>
      <id value="med"/>
      <name value="Ramipril 10 MG Oral Capsule"/>
      <code>
	<coding>
	<system value="http://www.nlm.nih.gov/research/umls/rxnorm"/>
	  <code value="261962"/>
	  <display value="Ramipril 10 MG Oral Capsule"/>
	</coding>
      </code>
    </Medication>
  </contained>
  
  <status value="completed"/>

  <patient>
    <reference value="Patient/ID1768562"/>
  </patient>

  <authorizingPrescription>
    <reference value="MedicationOrder/ID205-mp"/>
  </authorizingPrescription>

  <quantity>
      <value value="180"/>
      <unit value="tablets"/>
      <system value="http://unitsofmeasure.org"/>
      <code value="{tablets}"/>
  </quantity>

  <daysSupply>
      <value value="90" />
      <unit value="days" />
      <system value="http://unitsofmeasure.org" />
      <code value="d" />
  </daysSupply>

  <medication>
      <reference value="#med"/>
  </medication>

  <whenHandedOver value="2008-08-28"/>

</MedicationDispense>

  </resource>
  <request>
    <method value="PUT"/>
    <url value="MedicationDispense/ID272-md"/>
  </request>
</entry>
<entry>
  <resource>
    
    
<MedicationDispense>
  <id value="ID275-md"/>
  <!--  insert contents here  -->
   <text>
    <status value="generated"/>
    <div xmlns="http://www.w3.org/1999/xhtml">
      Dispensed 180 tablets = 90 day supply of Ramipril 10 MG Oral Capsule
    </div>
  </text>  

  <contained>
    <Medication>
      <id value="med"/>
      <name value="Ramipril 10 MG Oral Capsule"/>
      <code>
	<coding>
	<system value="http://www.nlm.nih.gov/research/umls/rxnorm"/>
	  <code value="261962"/>
	  <display value="Ramipril 10 MG Oral Capsule"/>
	</coding>
      </code>
    </Medication>
  </contained>
  
  <status value="completed"/>

  <patient>
    <reference value="Patient/ID1768562"/>
  </patient>

  <authorizingPrescription>
    <reference value="MedicationOrder/ID205-mp"/>
  </authorizingPrescription>

  <quantity>
      <value value="180"/>
      <unit value="tablets"/>
      <system value="http://unitsofmeasure.org"/>
      <code value="{tablets}"/>
  </quantity>

  <daysSupply>
      <value value="90" />
      <unit value="days" />
      <system value="http://unitsofmeasure.org" />
      <code value="d" />
  </daysSupply>

  <medication>
      <reference value="#med"/>
  </medication>

  <whenHandedOver value="2009-06-17"/>

</MedicationDispense>

  </resource>
  <request>
    <method value="PUT"/>
    <url value="MedicationDispense/ID275-md"/>
  </request>
</entry>
<entry>
  <resource>
    
    
<MedicationDispense>
  <id value="ID273-md"/>
  <!--  insert contents here  -->
   <text>
    <status value="generated"/>
    <div xmlns="http://www.w3.org/1999/xhtml">
      Dispensed 180 tablets = 90 day supply of Ramipril 10 MG Oral Capsule
    </div>
  </text>  

  <contained>
    <Medication>
      <id value="med"/>
      <name value="Ramipril 10 MG Oral Capsule"/>
      <code>
	<coding>
	<system value="http://www.nlm.nih.gov/research/umls/rxnorm"/>
	  <code value="261962"/>
	  <display value="Ramipril 10 MG Oral Capsule"/>
	</coding>
      </code>
    </Medication>
  </contained>
  
  <status value="completed"/>

  <patient>
    <reference value="Patient/ID1768562"/>
  </patient>

  <authorizingPrescription>
    <reference value="MedicationOrder/ID205-mp"/>
  </authorizingPrescription>

  <quantity>
      <value value="180"/>
      <unit value="tablets"/>
      <system value="http://unitsofmeasure.org"/>
      <code value="{tablets}"/>
  </quantity>

  <daysSupply>
      <value value="90" />
      <unit value="days" />
      <system value="http://unitsofmeasure.org" />
      <code value="d" />
  </daysSupply>

  <medication>
      <reference value="#med"/>
  </medication>

  <whenHandedOver value="2008-11-25"/>

</MedicationDispense>

  </resource>
  <request>
    <method value="PUT"/>
    <url value="MedicationDispense/ID273-md"/>
  </request>
</entry>
<entry>
  <resource>
    
    
<MedicationDispense>
  <id value="ID274-md"/>
  <!--  insert contents here  -->
   <text>
    <status value="generated"/>
    <div xmlns="http://www.w3.org/1999/xhtml">
      Dispensed 180 tablets = 90 day supply of Ramipril 10 MG Oral Capsule
    </div>
  </text>  

  <contained>
    <Medication>
      <id value="med"/>
      <name value="Ramipril 10 MG Oral Capsule"/>
      <code>
	<coding>
	<system value="http://www.nlm.nih.gov/research/umls/rxnorm"/>
	  <code value="261962"/>
	  <display value="Ramipril 10 MG Oral Capsule"/>
	</coding>
      </code>
    </Medication>
  </contained>
  
  <status value="completed"/>

  <patient>
    <reference value="Patient/ID1768562"/>
  </patient>

  <authorizingPrescription>
    <reference value="MedicationOrder/ID205-mp"/>
  </authorizingPrescription>

  <quantity>
      <value value="180"/>
      <unit value="tablets"/>
      <system value="http://unitsofmeasure.org"/>
      <code value="{tablets}"/>
  </quantity>

  <daysSupply>
      <value value="90" />
      <unit value="days" />
      <system value="http://unitsofmeasure.org" />
      <code value="d" />
  </daysSupply>

  <medication>
      <reference value="#med"/>
  </medication>

  <whenHandedOver value="2009-03-17"/>

</MedicationDispense>

  </resource>
  <request>
    <method value="PUT"/>
    <url value="MedicationDispense/ID274-md"/>
  </request>
</entry>
<entry>
  <resource>
    
    
<MedicationOrder>
  <id value="ID206-mp"/>
  <text>
    <status value="generated"/>
    <div xmlns="http://www.w3.org/1999/xhtml">
      Digoxin 0.25 MG Oral Tablet (rxnorm: 197606)
    </div>
  </text>

  <contained>
    <Medication>
      <id value="med"/>
      <name value="Digoxin 0.25 MG Oral Tablet"/>
      <code>
	<coding>
	<system value="http://www.nlm.nih.gov/research/umls/rxnorm"/>
	  <code value="197606"/>
	  <display value="Digoxin 0.25 MG Oral Tablet"/>
	</coding>
      </code>
    </Medication>
  </contained>

  <status value="active" />
  <patient>
    <reference value="Patient/ID1768562"/>
  </patient>

  <medication>
    <reference value="#med"/>
  </medication>

  <dosageInstruction>
    <scheduledTiming>
      <repeat>
        <bounds>
          <start value="2009-01-03"/>
        </bounds>
        <frequency value="1"/>
        <duration value="1"/>
        <durationUnits value="d"/>
      </repeat>
      
    </scheduledTiming>
    <doseQuantity>
      <value value="1"/>
      <unit value="{tablet}"/>
      <system value="http://unitsofmeasure.org"/>
      <code value="{tablet}"/>
    </doseQuantity>
    
    <text value="1 daily"/>
  </dosageInstruction>
  <dispense>
     <numberOfRepeatsAllowed value="1"/>
     
     <quantity>
        <value value="30"/>
        <unit value="{tablet}"/>
        <system value="http://unitsofmeasure.org"/>
        <code value="{tablet}"/>
     </quantity>
     
     <expectedSupplyDuration>
        <value value="30"/>
        <unit value="days"/>
        <system value="http://unitsofmeasure.org"/>
        <code value="d"/>
     </expectedSupplyDuration>
     
  </dispense>
  
</MedicationOrder>

  </resource>
  <request>
    <method value="PUT"/>
    <url value="MedicationOrder/ID206-mp"/>
  </request>
</entry>
<entry>
  <resource>
    
    
<MedicationDispense>
  <id value="ID280-md"/>
  <!--  insert contents here  -->
   <text>
    <status value="generated"/>
    <div xmlns="http://www.w3.org/1999/xhtml">
      Dispensed 30 tablets = 30 day supply of Digoxin 0.25 MG Oral Tablet
    </div>
  </text>  

  <contained>
    <Medication>
      <id value="med"/>
      <name value="Digoxin 0.25 MG Oral Tablet"/>
      <code>
	<coding>
	<system value="http://www.nlm.nih.gov/research/umls/rxnorm"/>
	  <code value="197606"/>
	  <display value="Digoxin 0.25 MG Oral Tablet"/>
	</coding>
      </code>
    </Medication>
  </contained>
  
  <status value="completed"/>

  <patient>
    <reference value="Patient/ID1768562"/>
  </patient>

  <authorizingPrescription>
    <reference value="MedicationOrder/ID206-mp"/>
  </authorizingPrescription>

  <quantity>
      <value value="30"/>
      <unit value="tablets"/>
      <system value="http://unitsofmeasure.org"/>
      <code value="{tablets}"/>
  </quantity>

  <daysSupply>
      <value value="30" />
      <unit value="days" />
      <system value="http://unitsofmeasure.org" />
      <code value="d" />
  </daysSupply>

  <medication>
      <reference value="#med"/>
  </medication>

  <whenHandedOver value="2009-01-03"/>

</MedicationDispense>

  </resource>
  <request>
    <method value="PUT"/>
    <url value="MedicationDispense/ID280-md"/>
  </request>
</entry>
<entry>
  <resource>
    
    
<MedicationOrder>
  <id value="ID207-mp"/>
  <text>
    <status value="generated"/>
    <div xmlns="http://www.w3.org/1999/xhtml">
      Furosemide 20 MG Oral Tablet (rxnorm: 310429)
    </div>
  </text>

  <contained>
    <Medication>
      <id value="med"/>
      <name value="Furosemide 20 MG Oral Tablet"/>
      <code>
	<coding>
	<system value="http://www.nlm.nih.gov/research/umls/rxnorm"/>
	  <code value="310429"/>
	  <display value="Furosemide 20 MG Oral Tablet"/>
	</coding>
      </code>
    </Medication>
  </contained>

  <status value="active" />
  <patient>
    <reference value="Patient/ID1768562"/>
  </patient>

  <medication>
    <reference value="#med"/>
  </medication>

  <dosageInstruction>
    <scheduledTiming>
      <repeat>
        <bounds>
          <start value="2009-02-05"/>
        </bounds>
        <frequency value="1"/>
        <duration value="1"/>
        <durationUnits value="d"/>
      </repeat>
      
    </scheduledTiming>
    <doseQuantity>
      <value value="1"/>
      <unit value="{tablet}"/>
      <system value="http://unitsofmeasure.org"/>
      <code value="{tablet}"/>
    </doseQuantity>
    
    <text value="1 daily"/>
  </dosageInstruction>
  <dispense>
     <numberOfRepeatsAllowed value="1"/>
     
     <quantity>
        <value value="60"/>
        <unit value="{tablet}"/>
        <system value="http://unitsofmeasure.org"/>
        <code value="{tablet}"/>
     </quantity>
     
     <expectedSupplyDuration>
        <value value="30"/>
        <unit value="days"/>
        <system value="http://unitsofmeasure.org"/>
        <code value="d"/>
     </expectedSupplyDuration>
     
  </dispense>
  
</MedicationOrder>

  </resource>
  <request>
    <method value="PUT"/>
    <url value="MedicationOrder/ID207-mp"/>
  </request>
</entry>
<entry>
  <resource>
    
    
<MedicationDispense>
  <id value="ID304-md"/>
  <!--  insert contents here  -->
   <text>
    <status value="generated"/>
    <div xmlns="http://www.w3.org/1999/xhtml">
      Dispensed 60 tablets = 30 day supply of Furosemide 20 MG Oral Tablet
    </div>
  </text>  

  <contained>
    <Medication>
      <id value="med"/>
      <name value="Furosemide 20 MG Oral Tablet"/>
      <code>
	<coding>
	<system value="http://www.nlm.nih.gov/research/umls/rxnorm"/>
	  <code value="310429"/>
	  <display value="Furosemide 20 MG Oral Tablet"/>
	</coding>
      </code>
    </Medication>
  </contained>
  
  <status value="completed"/>

  <patient>
    <reference value="Patient/ID1768562"/>
  </patient>

  <authorizingPrescription>
    <reference value="MedicationOrder/ID207-mp"/>
  </authorizingPrescription>

  <quantity>
      <value value="60"/>
      <unit value="tablets"/>
      <system value="http://unitsofmeasure.org"/>
      <code value="{tablets}"/>
  </quantity>

  <daysSupply>
      <value value="30" />
      <unit value="days" />
      <system value="http://unitsofmeasure.org" />
      <code value="d" />
  </daysSupply>

  <medication>
      <reference value="#med"/>
  </medication>

  <whenHandedOver value="2009-04-18"/>

</MedicationDispense>

  </resource>
  <request>
    <method value="PUT"/>
    <url value="MedicationDispense/ID304-md"/>
  </request>
</entry>
<entry>
  <resource>
    
    
<MedicationDispense>
  <id value="ID302-md"/>
  <!--  insert contents here  -->
   <text>
    <status value="generated"/>
    <div xmlns="http://www.w3.org/1999/xhtml">
      Dispensed 60 tablets = 30 day supply of Furosemide 20 MG Oral Tablet
    </div>
  </text>  

  <contained>
    <Medication>
      <id value="med"/>
      <name value="Furosemide 20 MG Oral Tablet"/>
      <code>
	<coding>
	<system value="http://www.nlm.nih.gov/research/umls/rxnorm"/>
	  <code value="310429"/>
	  <display value="Furosemide 20 MG Oral Tablet"/>
	</coding>
      </code>
    </Medication>
  </contained>
  
  <status value="completed"/>

  <patient>
    <reference value="Patient/ID1768562"/>
  </patient>

  <authorizingPrescription>
    <reference value="MedicationOrder/ID207-mp"/>
  </authorizingPrescription>

  <quantity>
      <value value="60"/>
      <unit value="tablets"/>
      <system value="http://unitsofmeasure.org"/>
      <code value="{tablets}"/>
  </quantity>

  <daysSupply>
      <value value="30" />
      <unit value="days" />
      <system value="http://unitsofmeasure.org" />
      <code value="d" />
  </daysSupply>

  <medication>
      <reference value="#med"/>
  </medication>

  <whenHandedOver value="2009-02-05"/>

</MedicationDispense>

  </resource>
  <request>
    <method value="PUT"/>
    <url value="MedicationDispense/ID302-md"/>
  </request>
</entry>
<entry>
  <resource>
    
    
<MedicationDispense>
  <id value="ID306-md"/>
  <!--  insert contents here  -->
   <text>
    <status value="generated"/>
    <div xmlns="http://www.w3.org/1999/xhtml">
      Dispensed 60 tablets = 30 day supply of Furosemide 20 MG Oral Tablet
    </div>
  </text>  

  <contained>
    <Medication>
      <id value="med"/>
      <name value="Furosemide 20 MG Oral Tablet"/>
      <code>
	<coding>
	<system value="http://www.nlm.nih.gov/research/umls/rxnorm"/>
	  <code value="310429"/>
	  <display value="Furosemide 20 MG Oral Tablet"/>
	</coding>
      </code>
    </Medication>
  </contained>
  
  <status value="completed"/>

  <patient>
    <reference value="Patient/ID1768562"/>
  </patient>

  <authorizingPrescription>
    <reference value="MedicationOrder/ID207-mp"/>
  </authorizingPrescription>

  <quantity>
      <value value="60"/>
      <unit value="tablets"/>
      <system value="http://unitsofmeasure.org"/>
      <code value="{tablets}"/>
  </quantity>

  <daysSupply>
      <value value="30" />
      <unit value="days" />
      <system value="http://unitsofmeasure.org" />
      <code value="d" />
  </daysSupply>

  <medication>
      <reference value="#med"/>
  </medication>

  <whenHandedOver value="2009-07-02"/>

</MedicationDispense>

  </resource>
  <request>
    <method value="PUT"/>
    <url value="MedicationDispense/ID306-md"/>
  </request>
</entry>
<entry>
  <resource>
    
    
<MedicationDispense>
  <id value="ID305-md"/>
  <!--  insert contents here  -->
   <text>
    <status value="generated"/>
    <div xmlns="http://www.w3.org/1999/xhtml">
      Dispensed 60 tablets = 30 day supply of Furosemide 20 MG Oral Tablet
    </div>
  </text>  

  <contained>
    <Medication>
      <id value="med"/>
      <name value="Furosemide 20 MG Oral Tablet"/>
      <code>
	<coding>
	<system value="http://www.nlm.nih.gov/research/umls/rxnorm"/>
	  <code value="310429"/>
	  <display value="Furosemide 20 MG Oral Tablet"/>
	</coding>
      </code>
    </Medication>
  </contained>
  
  <status value="completed"/>

  <patient>
    <reference value="Patient/ID1768562"/>
  </patient>

  <authorizingPrescription>
    <reference value="MedicationOrder/ID207-mp"/>
  </authorizingPrescription>

  <quantity>
      <value value="60"/>
      <unit value="tablets"/>
      <system value="http://unitsofmeasure.org"/>
      <code value="{tablets}"/>
  </quantity>

  <daysSupply>
      <value value="30" />
      <unit value="days" />
      <system value="http://unitsofmeasure.org" />
      <code value="d" />
  </daysSupply>

  <medication>
      <reference value="#med"/>
  </medication>

  <whenHandedOver value="2009-05-27"/>

</MedicationDispense>

  </resource>
  <request>
    <method value="PUT"/>
    <url value="MedicationDispense/ID305-md"/>
  </request>
</entry>
<entry>
  <resource>
    
    
<MedicationDispense>
  <id value="ID307-md"/>
  <!--  insert contents here  -->
   <text>
    <status value="generated"/>
    <div xmlns="http://www.w3.org/1999/xhtml">
      Dispensed 60 tablets = 30 day supply of Furosemide 20 MG Oral Tablet
    </div>
  </text>  

  <contained>
    <Medication>
      <id value="med"/>
      <name value="Furosemide 20 MG Oral Tablet"/>
      <code>
	<coding>
	<system value="http://www.nlm.nih.gov/research/umls/rxnorm"/>
	  <code value="310429"/>
	  <display value="Furosemide 20 MG Oral Tablet"/>
	</coding>
      </code>
    </Medication>
  </contained>
  
  <status value="completed"/>

  <patient>
    <reference value="Patient/ID1768562"/>
  </patient>

  <authorizingPrescription>
    <reference value="MedicationOrder/ID207-mp"/>
  </authorizingPrescription>

  <quantity>
      <value value="60"/>
      <unit value="tablets"/>
      <system value="http://unitsofmeasure.org"/>
      <code value="{tablets}"/>
  </quantity>

  <daysSupply>
      <value value="30" />
      <unit value="days" />
      <system value="http://unitsofmeasure.org" />
      <code value="d" />
  </daysSupply>

  <medication>
      <reference value="#med"/>
  </medication>

  <whenHandedOver value="2009-08-04"/>

</MedicationDispense>

  </resource>
  <request>
    <method value="PUT"/>
    <url value="MedicationDispense/ID307-md"/>
  </request>
</entry>
<entry>
  <resource>
    
    
<MedicationDispense>
  <id value="ID303-md"/>
  <!--  insert contents here  -->
   <text>
    <status value="generated"/>
    <div xmlns="http://www.w3.org/1999/xhtml">
      Dispensed 60 tablets = 30 day supply of Furosemide 20 MG Oral Tablet
    </div>
  </text>  

  <contained>
    <Medication>
      <id value="med"/>
      <name value="Furosemide 20 MG Oral Tablet"/>
      <code>
	<coding>
	<system value="http://www.nlm.nih.gov/research/umls/rxnorm"/>
	  <code value="310429"/>
	  <display value="Furosemide 20 MG Oral Tablet"/>
	</coding>
      </code>
    </Medication>
  </contained>
  
  <status value="completed"/>

  <patient>
    <reference value="Patient/ID1768562"/>
  </patient>

  <authorizingPrescription>
    <reference value="MedicationOrder/ID207-mp"/>
  </authorizingPrescription>

  <quantity>
      <value value="60"/>
      <unit value="tablets"/>
      <system value="http://unitsofmeasure.org"/>
      <code value="{tablets}"/>
  </quantity>

  <daysSupply>
      <value value="30" />
      <unit value="days" />
      <system value="http://unitsofmeasure.org" />
      <code value="d" />
  </daysSupply>

  <medication>
      <reference value="#med"/>
  </medication>

  <whenHandedOver value="2009-03-17"/>

</MedicationDispense>

  </resource>
  <request>
    <method value="PUT"/>
    <url value="MedicationDispense/ID303-md"/>
  </request>
</entry>
  <entry>
  <resource>
    
    
  <Condition>
  <id value="ID163-c"/>
    <text>
     <status value="generated"/>
     <div xmlns="http://www.w3.org/1999/xhtml">Atrial fibrillation</div>   
   </text>
    <patient>
      <reference value="Patient/ID1768562"/>
    </patient>
    <code> 
      <coding>
        <system value="http://snomed.info/sct"/>
        <code value="49436004"/>
        <display value="Atrial fibrillation"/>
      </coding>
      <text value="Atrial fibrillation"/>
    </code>
   <clinicalStatus value="confirmed"/>
   <onsetDateTime value="2003-11-30"/>
   
  </Condition>
  
  </resource>
  <request>
    <method value="PUT"/>
    <url value="Condition/ID163-c"/>
  </request>
</entry>
  <entry>
  <resource>
    
    
  <Condition>
  <id value="ID164-c"/>
    <text>
     <status value="generated"/>
     <div xmlns="http://www.w3.org/1999/xhtml">Chest pain</div>   
   </text>
    <patient>
      <reference value="Patient/ID1768562"/>
    </patient>
    <code> 
      <coding>
        <system value="http://snomed.info/sct"/>
        <code value="29857009"/>
        <display value="Chest pain"/>
      </coding>
      <text value="Chest pain"/>
    </code>
   <clinicalStatus value="confirmed"/>
   <onsetDateTime value="2003-11-30"/>
   
  </Condition>
  
  </resource>
  <request>
    <method value="PUT"/>
    <url value="Condition/ID164-c"/>
  </request>
</entry>
  <entry>
  <resource>
    
    
  <Condition>
  <id value="ID165-c"/>
    <text>
     <status value="generated"/>
     <div xmlns="http://www.w3.org/1999/xhtml">Chronic pulmonary heart disease</div>   
   </text>
    <patient>
      <reference value="Patient/ID1768562"/>
    </patient>
    <code> 
      <coding>
        <system value="http://snomed.info/sct"/>
        <code value="88223008"/>
        <display value="Chronic pulmonary heart disease"/>
      </coding>
      <text value="Chronic pulmonary heart disease"/>
    </code>
   <clinicalStatus value="confirmed"/>
   <onsetDateTime value="2003-11-30"/>
   
  </Condition>
  
  </resource>
  <request>
    <method value="PUT"/>
    <url value="Condition/ID165-c"/>
  </request>
</entry>
  <entry>
  <resource>
    
    
  <Condition>
  <id value="ID166-c"/>
    <text>
     <status value="generated"/>
     <div xmlns="http://www.w3.org/1999/xhtml">Congestive rheumatic heart failure</div>   
   </text>
    <patient>
      <reference value="Patient/ID1768562"/>
    </patient>
    <code> 
      <coding>
        <system value="http://snomed.info/sct"/>
        <code value="82523003"/>
        <display value="Congestive rheumatic heart failure"/>
      </coding>
      <text value="Congestive rheumatic heart failure"/>
    </code>
   <clinicalStatus value="confirmed"/>
   <onsetDateTime value="2003-11-30"/>
   
  </Condition>
  
  </resource>
  <request>
    <method value="PUT"/>
    <url value="Condition/ID166-c"/>
  </request>
</entry>
  <entry>
  <resource>
    
    
  <Condition>
  <id value="ID167-c"/>
    <text>
     <status value="generated"/>
     <div xmlns="http://www.w3.org/1999/xhtml">Coronary arteriosclerosis</div>   
   </text>
    <patient>
      <reference value="Patient/ID1768562"/>
    </patient>
    <code> 
      <coding>
        <system value="http://snomed.info/sct"/>
        <code value="233817007"/>
        <display value="Coronary arteriosclerosis"/>
      </coding>
      <text value="Coronary arteriosclerosis"/>
    </code>
   <clinicalStatus value="confirmed"/>
   <onsetDateTime value="2003-11-30"/>
   
  </Condition>
  
  </resource>
  <request>
    <method value="PUT"/>
    <url value="Condition/ID167-c"/>
  </request>
</entry>
  <entry>
  <resource>
    
    
  <Condition>
  <id value="ID168-c"/>
    <text>
     <status value="generated"/>
     <div xmlns="http://www.w3.org/1999/xhtml">Dilated cardiomyopathy secondary to alcohol</div>   
   </text>
    <patient>
      <reference value="Patient/ID1768562"/>
    </patient>
    <code> 
      <coding>
        <system value="http://snomed.info/sct"/>
        <code value="83521008"/>
        <display value="Dilated cardiomyopathy secondary to alcohol"/>
      </coding>
      <text value="Dilated cardiomyopathy secondary to alcohol"/>
    </code>
   <clinicalStatus value="confirmed"/>
   <onsetDateTime value="2003-11-30"/>
   
  </Condition>
  
  </resource>
  <request>
    <method value="PUT"/>
    <url value="Condition/ID168-c"/>
  </request>
</entry>
  <entry>
  <resource>
    
    
  <Condition>
  <id value="ID169-c"/>
    <text>
     <status value="generated"/>
     <div xmlns="http://www.w3.org/1999/xhtml">FH: Cardiac disorder</div>   
   </text>
    <patient>
      <reference value="Patient/ID1768562"/>
    </patient>
    <code> 
      <coding>
        <system value="http://snomed.info/sct"/>
        <code value="297242006"/>
        <display value="FH: Cardiac disorder"/>
      </coding>
      <text value="FH: Cardiac disorder"/>
    </code>
   <clinicalStatus value="confirmed"/>
   <onsetDateTime value="2003-11-30"/>
   
  </Condition>
  
  </resource>
  <request>
    <method value="PUT"/>
    <url value="Condition/ID169-c"/>
  </request>
</entry>
  <entry>
  <resource>
    
    
  <Condition>
  <id value="ID170-c"/>
    <text>
     <status value="generated"/>
     <div xmlns="http://www.w3.org/1999/xhtml">Hypertensive heart disease, unspecified, without heart failure</div>   
   </text>
    <patient>
      <reference value="Patient/ID1768562"/>
    </patient>
    <code> 
      <coding>
        <system value="http://snomed.info/sct"/>
        <code value="64715009"/>
        <display value="Hypertensive heart disease, unspecified, without heart failure"/>
      </coding>
      <text value="Hypertensive heart disease, unspecified, without heart failure"/>
    </code>
   <clinicalStatus value="confirmed"/>
   <onsetDateTime value="2003-11-30"/>
   
  </Condition>
  
  </resource>
  <request>
    <method value="PUT"/>
    <url value="Condition/ID170-c"/>
  </request>
</entry>
  <entry>
  <resource>
    
    
  <Condition>
  <id value="ID171-c"/>
    <text>
     <status value="generated"/>
     <div xmlns="http://www.w3.org/1999/xhtml">Sinus node dysfunction</div>   
   </text>
    <patient>
      <reference value="Patient/ID1768562"/>
    </patient>
    <code> 
      <coding>
        <system value="http://snomed.info/sct"/>
        <code value="36083008"/>
        <display value="Sinus node dysfunction"/>
      </coding>
      <text value="Sinus node dysfunction"/>
    </code>
   <clinicalStatus value="confirmed"/>
   <onsetDateTime value="2003-11-30"/>
   
  </Condition>
  
  </resource>
  <request>
    <method value="PUT"/>
    <url value="Condition/ID171-c"/>
  </request>
</entry>
  <entry>
  <resource>
    
    
  <Condition>
  <id value="ID172-c"/>
    <text>
     <status value="generated"/>
     <div xmlns="http://www.w3.org/1999/xhtml">Tobacco dependence syndrome</div>   
   </text>
    <patient>
      <reference value="Patient/ID1768562"/>
    </patient>
    <code> 
      <coding>
        <system value="http://snomed.info/sct"/>
        <code value="89765005"/>
        <display value="Tobacco dependence syndrome"/>
      </coding>
      <text value="Tobacco dependence syndrome"/>
    </code>
   <clinicalStatus value="confirmed"/>
   <onsetDateTime value="2003-11-30"/>
   
  </Condition>
  
  </resource>
  <request>
    <method value="PUT"/>
    <url value="Condition/ID172-c"/>
  </request>
</entry>
  <entry>
  <resource>
    
    
  <Condition>
  <id value="ID173-c"/>
    <text>
     <status value="generated"/>
     <div xmlns="http://www.w3.org/1999/xhtml">Cardiomyopathy</div>   
   </text>
    <patient>
      <reference value="Patient/ID1768562"/>
    </patient>
    <code> 
      <coding>
        <system value="http://snomed.info/sct"/>
        <code value="85898001"/>
        <display value="Cardiomyopathy"/>
      </coding>
      <text value="Cardiomyopathy"/>
    </code>
   <clinicalStatus value="confirmed"/>
   <onsetDateTime value="2004-01-03"/>
   
  </Condition>
  
  </resource>
  <request>
    <method value="PUT"/>
    <url value="Condition/ID173-c"/>
  </request>
</entry>
  <entry>
  <resource>
    
    
  <Condition>
  <id value="ID174-c"/>
    <text>
     <status value="generated"/>
     <div xmlns="http://www.w3.org/1999/xhtml">Depressive disorder</div>   
   </text>
    <patient>
      <reference value="Patient/ID1768562"/>
    </patient>
    <code> 
      <coding>
        <system value="http://snomed.info/sct"/>
        <code value="35489007"/>
        <display value="Depressive disorder"/>
      </coding>
      <text value="Depressive disorder"/>
    </code>
   <clinicalStatus value="confirmed"/>
   <onsetDateTime value="2004-01-03"/>
   
  </Condition>
  
  </resource>
  <request>
    <method value="PUT"/>
    <url value="Condition/ID174-c"/>
  </request>
</entry>
  <entry>
  <resource>
    
    
  <Condition>
  <id value="ID175-c"/>
    <text>
     <status value="generated"/>
     <div xmlns="http://www.w3.org/1999/xhtml">History of tobacco use</div>   
   </text>
    <patient>
      <reference value="Patient/ID1768562"/>
    </patient>
    <code> 
      <coding>
        <system value="http://snomed.info/sct"/>
        <code value="8517006"/>
        <display value="History of tobacco use"/>
      </coding>
      <text value="History of tobacco use"/>
    </code>
   <clinicalStatus value="confirmed"/>
   <onsetDateTime value="2004-01-03"/>
   
  </Condition>
  
  </resource>
  <request>
    <method value="PUT"/>
    <url value="Condition/ID175-c"/>
  </request>
</entry>
  <entry>
  <resource>
    
    
  <Condition>
  <id value="ID176-c"/>
    <text>
     <status value="generated"/>
     <div xmlns="http://www.w3.org/1999/xhtml">Hyperlipidemia</div>   
   </text>
    <patient>
      <reference value="Patient/ID1768562"/>
    </patient>
    <code> 
      <coding>
        <system value="http://snomed.info/sct"/>
        <code value="55822004"/>
        <display value="Hyperlipidemia"/>
      </coding>
      <text value="Hyperlipidemia"/>
    </code>
   <clinicalStatus value="confirmed"/>
   <onsetDateTime value="2004-01-03"/>
   
  </Condition>
  
  </resource>
  <request>
    <method value="PUT"/>
    <url value="Condition/ID176-c"/>
  </request>
</entry>
  <entry>
  <resource>
    
    
  <Condition>
  <id value="ID177-c"/>
    <text>
     <status value="generated"/>
     <div xmlns="http://www.w3.org/1999/xhtml">Chronic obstructive lung disease</div>   
   </text>
    <patient>
      <reference value="Patient/ID1768562"/>
    </patient>
    <code> 
      <coding>
        <system value="http://snomed.info/sct"/>
        <code value="13645005"/>
        <display value="Chronic obstructive lung disease"/>
      </coding>
      <text value="Chronic obstructive lung disease"/>
    </code>
   <clinicalStatus value="confirmed"/>
   <onsetDateTime value="2004-09-15"/>
   
  </Condition>
  
  </resource>
  <request>
    <method value="PUT"/>
    <url value="Condition/ID177-c"/>
  </request>
</entry>
  <entry>
  <resource>
    
    
  <Procedure>
  <id value="ID12-p"/>
   <text>
     <status value="generated"/>
     <div xmlns="http://www.w3.org/1999/xhtml">Coronary artery bypass with autogenous graft, three grafts</div>   
   </text>
   <patient>
      <reference value="Patient/ID1768562"/>
   </patient>
   <type> 
      <coding>
        <system value="http://snomed.info/sct"/>
        <code value="10326007"/>
        <display value="Coronary artery bypass with autogenous graft, three grafts"/>
      </coding>
      <text value="Coronary artery bypass with autogenous graft, three grafts"/>
   </type>
   <performedDateTime value="2007-11-30"/>
  </Procedure>
  
  </resource>
  <request>
    <method value="PUT"/>
    <url value="Procedure/ID12-p"/>
  </request>
</entry>
<entry>
  <resource>
    
    
  <Observation>
  <id value="ID29-smokingstatus"/>
    <text>
      <status value="generated"/>
      <div xmlns="http://www.w3.org/1999/xhtml">Tobacco smoking status: Current some day smoker</div>
    </text>
    <code>
      <coding>
        <system value="http://loinc.org"/>
        <code value="72166-2"/>
        <display value="Tobacco smoking status"/>
      </coding>
    </code>
    <valueCodeableConcept>
      <coding>
        <system value="http://snomed.info/sct"/>
        <code value="428041000124106"/>
        <display value="Current some day smoker"/>
      </coding>
    </valueCodeableConcept>
    <status value="final"/>
    <reliability value="ok"/>
    <subject>
      <reference value="Patient/ID1768562"/>
    </subject>
  </Observation>
  
  </resource>
  <request>
    <method value="PUT"/>
    <url value="Observation/ID29-smokingstatus"/>
  </request>
</entry>
<entry>
  <resource>
    
    
  <Observation>
  <id value="ID1768562-gestage"/>
    <text>
      <status value="generated"/>
      <div xmlns="http://www.w3.org/1999/xhtml">1939-08-30: Gestational age at birth = 37.9 weeks</div>
    </text>
    <code>
      <coding>
        <system value="http://loinc.org"/>
        <code value="18185-9"/>
        <display value="Gestational age at birth"/>
      </coding>
    </code>
    <valueQuantity>
      <value value="37.9"/>
      <unit value="weeks"/>
      <system value="http://unitsofmeasure.org" />
      <code value="wk"/>
    </valueQuantity>
    
    <effectiveDateTime value="1939-08-30"/>
    <status value="final"/>
    <reliability value="ok"/>
    <subject>
      <reference value="Patient/ID1768562"/>
    </subject>
  </Observation>
  
  </resource>
  <request>
    <method value="PUT"/>
    <url value="Observation/ID1768562-gestage"/>
  </request>
</entry>
  <entry>
  <resource>
    
    
    <List>
  <id value="ID41-l"/>
        <text>
            <status value="generated"/>
            <div xmlns="http://www.w3.org/1999/xhtml">No known allergies</div>
        </text>
        <code>
            <coding>
               <system value="http://loinc.org/"/>
               <code value="52473-6"/>
               <display value="Allergy"/>
            </coding>
        </code>
        <subject>
          <reference value="Patient/ID1768562"/>
        </subject>
        <date value="2000"/>
        <mode value="snapshot"/>
        <emptyReason>
            <coding>
                <system value="http://hl7.org/fhir/list-empty-reason"/>
                <code value="nilknown"/>
                <display value="Nil Known"/>
            </coding>
        </emptyReason>
    </List>
  
  </resource>
  <request>
    <method value="PUT"/>
    <url value="List/ID41-l"/>
  </request>
</entry>

</Bundle>
